PacketNum,PacketNumLogged,Pitch,Roll,Yaw,AccX,AccY,AccZ,GyroX,GyroY,GyroZ,MagX,MagY,MagZ,IMUTemp,HPSTemp,EXTTemp,BATTemp,PMTTemp,gpsPacketNums,gpsTimes,gpsLats,gpsLongs,gpsSpeeds,gpsAngles,gpsAlts,gpsSatNums,gpsLatErrs,gpsLongErrs,gpsAltErrs,gpsClkBiases,gpsClkDrifts,gpsTimeErrs,UTCDateTime
0,0,1.208,-1.023,0.043,0.34323275,0.3530394,9.9047165,-2.8,4.1,-1,497,2030,2425,27.46,21.8476337662319,19.849331206759,21.4289105090908,21.8009237813338,0,739056.185532413,34.5658466666664,-88.6314141666671,-2.751760956,314.96,148.5,5,-190,-32,-507,-794463,-647.09,21,19-Jun-2023 04:27:10
1,1,2.36,-1.981,0.094,0.34323275,0.34323275,9.9831697,-3,2.7,-1.6,490,2094,2432,27.67,21.7698097419057,20.1491741901621,21.2901582699171,21.7698097419057,1,739056.185543984,34.5658479999997,-88.6314076666658,-2.70854766,314.18,149,5,-186,-31,-497,-795066,-646.403,21,19-Jun-2023 04:27:11
2,2,3.469,-2.874,0.143,0.3726527,0.36284605,10.01258965,-3.1,2.2,-1.5,461,2080,2459,27.85,21.5680708196798,19.8792348877113,21.4597995990347,21.7231774815723,2,739056.185555562,34.5658493333331,-88.6314011666664,-2.665334364,313.39,149.5,5,-182,-30,-487,-795669,-645.716,21,19-Jun-2023 04:27:12
3,3,4.537,-3.743,0.203,0.42168595,0.36284605,10.002783,-3.1,2.3,-1.6,504,2037,2432,27.97,22.1602396703408,20.0140223414805,21.5216384306769,21.754260488288,3,739056.185567133,34.5658506666664,-88.6313946666669,-2.622121068,312.6,150,5,-178,-29,-477,-796272,-645.029,21,19-Jun-2023 04:27:13
4,4,5.576,-4.547,0.257,0.392266,0.34323275,10.03220295,-3.1,2.1,-1.6,447,2051,2459,28.04,21.9724233071772,19.9840382231602,21.5525882713828,21.7698097419057,4,739056.185578704,34.5658519999997,-88.6313881666665,-2.578907772,311.82,150.5,5,-174,-28,-467,-796875,-644.342,21,19-Jun-2023 04:27:14
5,5,6.575,-5.316,0.31,0.4118793,0.3334261,10.0420096,-3.3,2.1,-1.4,447,2137,2391,28.11,21.7231774815723,19.9990280357209,21.3209570646775,21.754260488288,5,739056.185590282,34.5658533333331,-88.631381666667,-2.535694476,311.03,151,5,-170,-27,-457,-797478,-643.655,21,19-Jun-2023 04:27:15
6,6,7.579,-6.035,0.368,0.32361945,0.36284605,10.01258965,-3.3,1.7,-1.5,468,2087,2453,28.19,22.0349440739926,19.9690528983467,21.4907088897507,21.754260488288,6,739056.185601853,34.5658546666664,-88.6313751666657,-2.49248118,310.25,151.5,5,-166,-26,-447,-798081,-642.968,21,19-Jun-2023 04:27:16
7,7,8.523,-6.707,0.421,0.36284605,0.34323275,10.0812362,-3.1,2.1,-1.5,440,2130,2425,28.2,21.3980415706122,19.9840382231602,21.6145490510742,21.5680708196798,7,739056.185613431,34.5658559999999,-88.6313686666663,-2.449267884,309.46,152,5,-162,-25,-437,-798684,-642.281,21,19-Jun-2023 04:27:17
8,8,9.448,-7.352,0.483,0.36284605,0.36284605,10.05181625,-2.9,2.4,-1.5,482,2087,2453,28.28,22.1445591118358,20.1040828393648,21.2286204253818,21.7076437158309,8,739056.185625002,34.565857333333,-88.6313621666668,-2.406054588,308.68,152.5,5,-158,-24,-427,-799287,-641.594,21,19-Jun-2023 04:27:18
9,9,10.33,-7.974,0.546,0.38245935,0.34323275,10.05181625,-3.1,2.2,-1.5,482,2087,2453,28.36,22.2387226412228,20.1792578219599,21.3363639514761,21.7698097419057,9,739056.185636573,34.5658586666664,-88.6313556666664,-2.362841292,307.9,153,5,-154,-23,-417,-799890,-640.907,21,19-Jun-2023 04:27:18
10,10,11.194,-8.564,0.608,0.3530394,0.34323275,10.0223963,-3,2.1,-1.4,482,2058,2453,28.39,22.3488244999129,19.9990280357209,21.6610732933889,21.7231774815723,10,739056.185648151,34.5658599999997,-88.631349166667,-2.319627996,307.11,153.5,5,-150,-22,-407,-800493,-640.22,21,19-Jun-2023 04:27:20
11,11,12.019,-9.105,0.657,0.36284605,0.3530394,10.03220295,-3.1,2.2,-1.4,433,2151,2363,28.43,22.0818901115404,19.9241237959733,21.5371108104541,21.5525882713828,11,739056.185659729,34.565861333333,-88.6313426666666,-2.2764147,306.33,154,5,-146,-21,-397,-801096,-639.533,21,19-Jun-2023 04:27:21
12,12,12.799,-9.612,0.705,0.3726527,0.34323275,10.0223963,-3,2.2,-1.5,411,2073,2494,28.45,22.4749802799681,20.164213729252,21.5216384306769,21.7387164036188,12,739056.1856713,34.5658626666666,-88.6313361666662,-2.233201404,305.54,154.5,5,-142,-20,-387,-801699,-638.846,21,19-Jun-2023 04:27:22
13,13,13.538,-10.105,0.758,0.38245935,0.32361945,10.05181625,-3.1,2.2,-1.4,440,2015,2411,28.49,22.5698266443105,19.849331206759,21.3671927344227,21.645560089862,13,739056.185682878,34.5658639999999,-88.6313296666667,-2.189988108,304.75,155,5,-138,-19,-377,-802302,-638.159,21,19-Jun-2023 04:27:23
14,14,14.255,-10.554,0.795,0.36284605,0.34323275,10.01258965,-3.1,2.1,-1.4,390,2108,2432,28.52,22.2701533690134,19.9540720558354,21.5835584615703,21.7076437158309,14,739056.185694449,34.5658653333332,-88.6313231666663,-2.146774812,303.97,155.5,5,-134,-18,-367,-802905,-637.472,21,19-Jun-2023 04:27:24
15,15,14.928,-10.974,0.833,0.40207265,0.3726527,10.01258965,-3.1,2.2,-1.5,404,2051,2446,28.55,22.3960921149843,19.9091563677665,21.5371108104541,21.5835584615703,15,739056.185706019,34.5658666666664,-88.6313166666669,-2.103561516,303.18,156,5,-130,-17,-357,-803508,-636.785,21,19-Jun-2023 04:27:25
16,16,15.587,-11.412,0.89,0.3726527,0.3334261,10.002783,-3.1,2.2,-1.4,490,1994,2473,28.55,22.6014861071707,20.059032272571,21.5835584615703,21.754260488288,16,739056.185717598,34.5658679999997,-88.6313101666665,-2.06034822,302.4,156.5,5,-126,-16,-347,-804111,-636.098,21,19-Jun-2023 04:27:26
17,17,16.219,-11.808,0.931,0.32361945,0.32361945,10.03220295,-3.1,2.2,-1.5,447,2065,2446,28.6,22.7919087890057,20.1040828393648,21.4907088897507,21.5525882713828,17,739056.185729168,34.565869333333,-88.631303666667,-2.017134924,301.62,157,5,-122,-15,-337,-804714,-635.411,21,19-Jun-2023 04:27:27
18,18,16.79,-12.179,0.967,0.392266,0.3334261,10.0616229,-3.2,2.2,-1.4,447,2065,2432,28.62,22.6490167460274,19.9990280357209,21.5680708196798,21.7698097419057,18,739056.185740747,34.5658706666663,-88.6312971666666,-1.973921628,300.83,157.5,5,-118,-14,-327,-805317,-634.724,21,19-Jun-2023 04:27:28
19,19,17.339,-12.512,0.99,0.3726527,0.36284605,10.0420096,-3,2.2,-1.4,426,2087,2480,28.67,23.1110798880014,20.0740446057789,21.3671927344227,21.5680708196798,19,739056.185752317,34.5658719999999,-88.6312906666662,-1.930708332,300.05,158,5,-114,-13,-317,-805920,-634.037,21,19-Jun-2023 04:27:29
20,20,17.884,-12.868,-1.031,0.3726527,0.34323275,10.01258965,-3.1,2.2,-1.4,504,2108,2459,28.7,22.8396401320733,20.0290211458974,21.5061711258425,21.5371108104541,20,739056.185763888,34.5658733333332,-88.6312841666663,-1.887495036,299.26,158.5,5,-110,-12,-307,-806523,-633.35,21,19-Jun-2023 04:27:29
21,21,18.42,-13.219,-1.078,0.3530394,0.3530394,9.99297635,-3.1,2.2,-1.4,553,2087,2466,28.7,23.2393887989256,19.849331206759,21.4597995990347,21.7853641708066,21,739056.185775466,34.5658746666666,-88.6312776666668,-1.84428174,298.48,159,5,-106,-11,-297,-807126,-632.663,21,19-Jun-2023 04:27:31
22,22,18.878,-13.495,-1.089,0.3726527,0.3726527,10.0420096,-3.2,2.3,-1.3,440,2030,2384,28.72,22.6807315479997,20.2093596903726,21.444352532051,21.7231774815723,22,739056.185787037,34.5658759999999,-88.6312711666665,-1.801068444,297.69,159.5,5,-102,-10,-287,-807729,-631.976,21,19-Jun-2023 04:27:32
23,23,19.315,-13.787,-1.111,0.392266,0.3334261,10.09104285,-3,2.2,-1.3,504,2108,2377,28.76,23.1751881404251,20.1040828393648,21.5216384306769,21.6610732933889,23,739056.185798615,34.5658773333332,-88.6312646666665,-1.757855148,296.91,160,5,-98,-9,-277,-808332,-631.289,21,19-Jun-2023 04:27:33
24,24,19.718,-14.035,-1.11,0.40207265,0.3726527,10.05181625,-3.1,2.2,-1.4,440,2130,2411,28.78,23.529447691351,20.1943064738198,21.444352532051,21.5371108104541,24,739056.18581019,34.5658786666663,-88.6312581666666,-1.714641852,296.12,160.5,5,-94,-8,-267,-808935,-630.602,21,19-Jun-2023 04:27:34
25,25,20.113,-14.272,-1.101,0.3726527,0.36284605,9.97336305,-3.1,2.2,-1.4,397,2101,2370,28.8,23.4809721484378,19.8642808250471,21.5371108104541,21.6145490510742,25,739056.18582176,34.5658799999999,-88.6312516666662,-1.671428556,295.33,161,5,-90,-7,-257,-809538,-629.915,21,19-Jun-2023 04:27:35
26,26,20.477,-14.498,-1.095,0.3530394,0.3530394,10.07142955,-3.3,2.1,-1.3,461,2108,2432,28.84,23.4486846996388,20.0740446057789,21.4907088897507,21.7076437158309,26,739056.185833335,34.5658813333332,-88.6312451666663,-1.62821526,294.55,161.5,5,-86,-6,-247,-810141,-629.228,21,19-Jun-2023 04:27:36
27,27,20.824,-14.732,-1.097,0.36284605,0.34323275,10.0223963,-3.1,2.1,-1.4,482,2101,2480,28.85,23.2876002110863,20.2093596903726,21.6145490510742,21.6765916280356,27,739056.185844909,34.5658826666665,-88.6312386666668,-1.585001964,293.77,162,5,-82,-5,-237,-810744,-628.541,21,19-Jun-2023 04:27:37
28,28,21.132,-14.937,-1.078,0.36284605,0.34323275,9.99297635,-3.2,2.2,-1.3,418,2037,2418,28.86,23.0790602709434,19.9690528983467,21.6145490510742,21.863214166866,28,739056.185856484,34.5658839999999,-88.6312321666665,-1.541788668,292.98,162.5,5,-78,-4,-227,-811347,-627.854,21,19-Jun-2023 04:27:38
29,29,21.434,-15.151,-1.07,0.3530394,0.3334261,10.002783,-3.1,2,-1.3,475,2037,2404,28.88,23.368069177984,20.1792578219599,21.3517758393543,21.863214166866,29,739056.185868058,34.5658853333332,-88.6312256666665,-1.498575372,292.2,163,5,-74,-3,-217,-811950,-627.167,21,19-Jun-2023 04:27:39
30,30,21.708,-15.363,-1.064,0.38245935,0.3138128,10.05181625,-3.1,2.1,-1.4,497,2087,2397,28.9,23.0310738215276,20.1491741901621,21.444352532051,21.7698097419057,30,739056.185879633,34.5658866666665,-88.6312191666666,-1.455362076,291.41,163.5,5,-70,-2,-207,-812553,-626.48,21,19-Jun-2023 04:27:40
31,31,21.99,-15.561,-1.054,0.3334261,0.3334261,10.0223963,-3.1,2.2,-1.4,511,2087,2425,28.92,23.6265592404358,20.1943064738198,21.2747663497747,21.6610732933889,31,739056.185891207,34.5658879999999,-88.6312126666662,-1.41214878,290.63,164,5,-66,-1,-197,-813156,-625.793,21,19-Jun-2023 04:27:41
32,32,22.215,-15.718,-1.024,0.3726527,0.3726527,10.05181625,-3.1,2.2,-1.4,490,2051,2473,28.94,24.0008288379901,20.1040828393648,21.5525882713828,21.5371108104541,32,739056.185902782,34.5658893333332,-88.6312061666667,-1.368935484,289.84,164.5,5,-62,0,-187,-813759,-625.106,21,19-Jun-2023 04:27:42
33,33,22.435,-15.881,0.991,0.36284605,0.3334261,10.01258965,-3.2,2.2,-1.5,454,2101,2466,28.95,24.0008288379901,19.9241237959733,21.5216384306769,21.7076437158309,33,739056.185914353,34.5658906666665,-88.6311996666668,-1.325722188,289.06,165,5,-58,1,-177,-814362,-624.419,21,19-Jun-2023 04:27:43
34,34,22.612,-16.009,0.938,0.38245935,0.36284605,10.0223963,-3.1,2.1,-1.3,426,2073,2508,28.96,23.9191921257575,20.2394798397551,21.3826146427998,21.6765916280356,34,739056.185925927,34.5658919999998,-88.6311931666664,-1.282508892,288.27,165.5,5,-54,2,-167,-814965,-623.732,21,19-Jun-2023 04:27:44
35,35,22.797,-16.131,0.882,0.3530394,0.3530394,10.05181625,-3.2,2.2,-1.5,426,2101,2411,28.99,23.8865803098063,20.2093596903726,21.3980415706122,21.8164885798388,35,739056.185937501,34.5658933333332,-88.6311866666665,-1.239295596,287.48,166,5,-50,3,-157,-815568,-623.045,21,19-Jun-2023 04:27:45
36,36,22.96,-16.255,0.828,0.3726527,0.34323275,10.05181625,-3.1,2.2,-1.4,440,2058,2370,29.01,24.1317680375719,20.1341391991633,21.2901582699171,21.7076437158309,36,739056.185949076,34.5658946666665,-88.6311801666666,-1.1960823,286.7,166.5,5,-46,4,-147,-816171,-622.358,21,19-Jun-2023 04:27:46
37,37,23.13,-16.387,0.782,0.3530394,0.34323275,10.01258965,-2.9,2.1,-1.5,468,2058,2397,29,23.8214298305763,20.1040828393648,21.2747663497747,21.832058572682,37,739056.18596065,34.565896,-88.6311736666667,-1.152869004,285.92,167,5,-42,5,-137,-816774,-621.671,21,19-Jun-2023 04:27:47
38,38,23.291,-16.531,0.742,0.392266,0.3530394,9.9635564,-3.1,2.3,-1.4,490,2065,2432,29.02,24.1645648524016,20.2696183145738,21.444352532051,21.7853641708066,38,739056.185972221,34.5658973333332,-88.6311671666667,-1.109655708,285.13,167.5,5,-38,6,-127,-817377,-620.984,21,19-Jun-2023 04:27:47
39,39,23.421,-16.635,0.673,0.34323275,0.32361945,10.03220295,-3.1,2.2,-1.4,418,2094,2446,29.06,24.3783546557437,19.9990280357209,21.3363639514761,21.754260488288,39,739056.185983799,34.5658986666666,-88.6311606666668,-1.066442412,284.35,168,5,-34,7,-117,-817980,-620.297,21,19-Jun-2023 04:27:49
40,40,23.528,-16.747,0.612,0.38245935,0.3334261,10.01258965,-3.1,2.2,-1.4,454,2073,2508,29.08,24.1317680375719,20.224417477166,21.5680708196798,21.5990512032878,40,739056.185995374,34.5658999999999,-88.6311541666664,-1.023229116,283.56,168.5,5,-30,8,-107,-818583,-619.61,21,19-Jun-2023 04:27:50
41,41,23.61,-16.817,0.523,0.38245935,0.34323275,10.0616229,-3,2,-1.4,390,2094,2459,29.08,24.3948441518666,20.0290211458974,21.4134735239949,21.8164885798388,41,739056.186006945,34.5659013333332,-88.6311476666665,-0.980015820000001,282.78,169,5,-26,9,-97,-819186,-618.923,21,19-Jun-2023 04:27:51
42,42,23.706,-16.899,0.447,0.3726527,0.3726527,10.0223963,-3.1,2.3,-1.4,447,2037,2432,29.09,24.4608656526652,19.9990280357209,21.5216384306769,21.7231774815723,42,739056.186018519,34.5659026666665,-88.631141166667,-0.936802524000001,281.99,169.5,5,-22,10,-87,-819789,-618.236,21,19-Jun-2023 04:27:52
43,43,23.814,-16.997,0.386,0.36284605,0.36284605,10.03220295,-3.1,2.3,-1.4,504,2065,2459,29.08,24.7758697411322,19.9091563677665,21.4907088897507,21.6145490510742,43,739056.186030094,34.5659039999999,-88.6311346666664,-0.893589228000001,281.2,170,5,-18,11,-77,-820392,-617.549,21,19-Jun-2023 04:27:53
44,44,23.916,-17.1,0.326,0.38245935,0.3530394,10.0223963,-3,2.3,-1.4,504,2080,2418,29.11,24.5104486953351,19.9690528983467,21.305555172856,21.8009237813338,44,739056.186041668,34.5659053333333,-88.6311281666667,-0.850375932000001,280.42,170.5,5,-14,12,-67,-820995,-616.862,21,19-Jun-2023 04:27:54
45,45,23.972,-17.183,0.25,0.392266,0.3334261,10.0616229,-3.2,2.1,-1.4,468,2058,2466,29.13,24.89251520341,20.1792578219599,21.3517758393543,21.8009237813338,45,739056.186053243,34.5659066666666,-88.6311216666666,-0.807162636000001,279.63,171,5,-10,13,-57,-821598,-616.175,21,19-Jun-2023 04:27:55
46,46,24.06,-17.254,0.165,0.36284605,0.3530394,10.0223963,-3,2.2,-1.3,440,2101,2384,29.14,24.6097877980719,20.1040828393648,21.3209570646775,21.7387164036188,46,739056.186064815,34.5659079999999,-88.6311151666664,-0.76394934,278.85,171.5,5,-6,14,-47,-822201,-615.488,21,19-Jun-2023 04:27:56
47,47,24.128,-17.33,0.084,0.3726527,0.34323275,10.0420096,-3.3,2.1,-1.5,461,2094,2432,29.15,24.4278421829669,20.1191087507352,21.305555172856,21.8476337662319,47,739056.18607639,34.5659093333333,-88.6311086666667,-0.720736044,278.07,172,5,-2,15,-37,-822804,-614.801,21,19-Jun-2023 04:27:57
48,48,24.175,-17.379,0.019,0.36284605,0.3334261,10.0420096,-3,2.3,-1.4,390,2094,2432,29.18,24.89251520341,20.0290211458974,21.5680708196798,21.6610732933889,48,739056.186087966,34.5659106666666,-88.6311021666666,-0.677522748000001,277.28,172.5,5,2,16,-27,-823407,-614.114,21,19-Jun-2023 04:27:58
49,49,24.249,-17.447,0.105,0.36284605,0.36284605,10.01258965,-3.1,2.3,-1.4,461,2080,2391,29.17,25.0094835413881,19.939095690188,21.5061711258425,21.6610732933889,49,739056.186099539,34.5659119999999,-88.6310956666666,-0.634309452000001,276.5,173,5,6,17,-17,-824010,-613.427,21,19-Jun-2023 04:27:59
50,50,24.31,-17.531,0.175,0.392266,0.32361945,10.09104285,-3,2.3,-1.3,518,2137,2418,29.19,25.1603504861043,20.224417477166,21.2901582699171,21.9724233071772,50,739056.186111111,34.5659133333332,-88.6310891666667,-0.591096156,275.71,173.5,5,10,18,-7,-824613,-612.74,21,19-Jun-2023 04:28:00
51,51,24.333,-17.59,0.266,0.3530394,0.32361945,10.07142955,-3.1,2.1,-1.6,461,2023,2432,29.2,25.143560706623,20.164213729252,21.3671927344227,21.8164885798388,51,739056.186122686,34.5659146666666,-88.6310826666665,-0.54788286,274.93,174,5,14,19,3,-825216,-612.053,21,19-Jun-2023 04:28:01
52,52,24.377,-17.659,0.356,0.392266,0.32361945,10.0223963,-3.1,2.2,-1.4,447,2123,2432,29.2,24.5766490559276,20.1040828393648,21.5525882713828,21.7231774815723,52,739056.18613426,34.565916,-88.6310761666666,-0.504669564,274.14,174.5,5,18,20,13,-825819,-611.366,21,19-Jun-2023 04:28:02
53,53,24.441,-17.744,0.427,0.3726527,0.34323275,10.002783,-3,2.1,-1.5,525,2101,2453,29.22,25.1267776434857,19.939095690188,21.5835584615703,21.645560089862,53,739056.186145835,34.5659173333333,-88.6310696666667,-0.461456268,273.36,175,5,22,21,23,-826422,-610.679,21,19-Jun-2023 04:28:03
54,54,24.51,-17.81,0.507,0.34323275,0.3530394,10.0420096,-3,2.1,-1.5,518,2094,2363,29.23,24.8091642367677,20.164213729252,21.3209570646775,21.6921151000855,54,739056.186157407,34.5659186666666,-88.6310631666668,-0.418242972,272.57,175.5,5,26,22,33,-827025,-609.992,21,19-Jun-2023 04:28:03
55,55,24.56,-17.859,0.599,0.36284605,0.3726527,10.0420096,-3,2.3,-1.3,504,2108,2432,29.24,25.1771469905073,20.1792578219599,21.5216384306769,21.8476337662319,55,739056.186168982,34.5659199999999,-88.6310566666666,-0.375029676,271.79,176,5,30,23,43,-827628,-609.305,21,19-Jun-2023 04:28:05
56,56,24.573,-17.883,0.717,0.3726527,0.3530394,10.05181625,-3,2.1,-1.4,411,2087,2384,29.25,25.5145026405188,19.849331206759,21.5525882713828,21.5371108104541,56,739056.186180556,34.5659213333333,-88.6310501666666,-0.33181638,271,176.5,5,34,24,53,-828231,-608.618,21,19-Jun-2023 04:28:06
57,57,24.591,-17.932,0.817,0.36284605,0.3334261,10.0420096,-3.2,2.2,-1.4,461,2065,2418,29.25,25.7182379243214,19.939095690188,21.4289105090908,21.5216384306769,57,739056.186192131,34.5659226666666,-88.6310436666666,-0.288603084,270.21,177,5,38,25,63,-828834,-607.931,21,19-Jun-2023 04:28:07
58,58,24.627,-17.995,0.91,0.3726527,0.34323275,9.9831697,-3.2,2,-1.3,475,2094,2432,29.28,24.9092051310453,20.1341391991633,21.3363639514761,21.645560089862,58,739056.186203704,34.5659239999999,-88.6310371666666,-0.245389788,269.43,177.5,5,42,26,73,-829437,-607.244,21,19-Jun-2023 04:28:08
59,59,24.66,-18.046,1.008,0.36284605,0.3530394,10.002783,-3.2,2.2,-1.3,475,2065,2377,29.3,25.5992705649539,20.1341391991633,21.3671927344227,21.4752517162094,59,739056.186215278,34.5659253333333,-88.6310306666667,-0.202176492,268.65,178,5,46,27,83,-830040,-606.557,21,19-Jun-2023 04:28:09
60,60,24.671,-18.079,1.117,0.38245935,0.3726527,10.01258965,-3.1,2.3,-1.4,461,2080,2459,29.29,25.0932316319977,19.939095690188,21.5990512032878,21.5680708196798,60,739056.186226852,34.5659266666666,-88.6310241666667,-0.158963196,267.86,178.5,5,50,28,93,-830643,-605.87,21,19-Jun-2023 04:28:10
61,61,24.71,-18.127,1.217,0.36284605,0.3726527,9.97336305,-3.1,2.3,-1.3,482,2087,2425,29.33,25.3792327277807,19.9540720558354,21.3671927344227,21.6145490510742,61,739056.186238426,34.565928,-88.6310176666666,-0.1157499,267.08,179,5,54,29,103,-831246,-605.183,21,19-Jun-2023 04:28:11
62,62,24.701,-18.168,1.32,0.392266,0.3334261,10.0616229,-3.1,2.1,-1.5,475,2080,2446,29.33,25.5145026405188,20.059032272571,21.5371108104541,21.9099866751769,62,739056.18625,34.5659293333333,-88.6310111666667,-0.0725366040000001,266.29,179.5,5,58,30,113,-831849,-604.496,21,19-Jun-2023 04:28:12
63,63,24.702,-18.208,1.425,0.392266,0.34323275,10.0420096,-3.1,2.3,-1.4,475,2094,2446,29.33,25.4806438901495,20.164213729252,21.3209570646775,21.7387164036188,63,739056.186261574,34.5659306666666,-88.6310046666667,-0.0293233080000001,265.51,180,5,52,27,104,-832451,-603.51,21,19-Jun-2023 04:28:13
64,64,24.725,-18.26,1.521,0.3726527,0.3530394,10.002783,-3.1,2.2,-1.4,504,2108,2487,29.34,25.8204834399831,20.1792578219599,21.4134735239949,21.8164885798388,64,739056.186273148,34.565932,-88.6309981666666,0.013889988,264.72,180.5,5,48,25,97,-833050,-603.692,21,19-Jun-2023 04:28:14
65,65,24.687,-18.275,1.647,0.38245935,0.3530394,10.0420096,-3.1,2.2,-1.4,433,2008,2459,29.37,25.7182379243214,19.8642808250471,21.5061711258425,21.7387164036188,65,739056.186284722,34.5659333333333,-88.6309916666667,0.057103284,263.94,181,5,45,23,91,-833648,-604.364,21,19-Jun-2023 04:28:15
66,66,24.682,-18.3,1.761,0.3530394,0.3530394,10.0420096,-3.1,2.2,-1.4,468,2044,2466,29.35,25.8375490515186,20.0440244544369,21.2286204253818,21.8164885798388,66,739056.186296296,34.5659346666667,-88.6309851666667,0.10031658,263.15,181.5,5,43,22,86,-834244,-604.607,21,19-Jun-2023 04:28:16
67,67,24.691,-18.329,1.873,0.36284605,0.36284605,10.03220295,-3.1,2.3,-1.4,475,2065,2418,29.37,25.5145026405188,20.0140223414805,21.3826146427998,21.6921151000855,67,739056.18630787,34.565936,-88.6309786666667,0.143529876,262.37,182,5,41,21,82,-834846,-604.232,21,19-Jun-2023 04:28:17
68,68,24.697,-18.344,1.997,0.3726527,0.36284605,10.0420096,-3.2,2.2,-1.4,433,2123,2432,29.4,25.684212307341,19.9690528983467,21.5680708196798,21.5371108104541,68,739056.186319444,34.5659293333333,-88.63098,0.155876532,261.58,183.5,5,38,19,78,-835447,-603.703,21,19-Jun-2023 04:28:18
69,69,24.706,-18.386,2.105,0.36284605,0.34323275,10.002783,-3.1,2.2,-1.4,468,2058,2411,29.4,26.0428911966675,20.2394798397551,21.444352532051,21.8164885798388,69,739056.186331019,34.5659241666667,-88.6309771666667,0.112148792,260.8,184.5,5,37,19,75,-836047,-603.6,21,19-Jun-2023 04:28:19
70,70,24.723,-18.425,2.218,0.36284605,0.3334261,9.99297635,-3,2.2,-1.4,440,2101,2397,29.39,25.6332263411282,19.9690528983467,21.4907088897507,21.6610732933889,70,739056.186342593,34.5659113333333,-88.6309785,0.156390976,260.01,187,5,35,18,72,-836646,-603.627,21,19-Jun-2023 04:28:20
71,71,24.693,-18.455,2.332,0.392266,0.34323275,10.05181625,-3.1,2.3,-1.3,475,1980,2363,29.42,26.3355687917004,20.1491741901621,21.2439974335734,21.8164885798388,71,739056.186354167,34.5659031666667,-88.6309776666667,0.023664424,259.23,188.4,5,34,17,70,-837246,-603.59,21,19-Jun-2023 04:28:21
72,72,24.701,-18.495,2.437,0.34323275,0.34323275,10.03220295,-3.1,2.1,-1.4,504,2051,2446,29.41,26.2320306543868,19.8792348877113,21.5216384306769,21.5835584615703,72,739056.186365741,34.5658943333333,-88.6309788333333,0.008231104,258.44,190.2,5,33,17,68,-837846,-603.493,21,19-Jun-2023 04:28:22
73,73,24.713,-18.528,2.548,0.38245935,0.3530394,10.0223963,-3.1,2.3,-1.4,475,2123,2432,29.43,26.0943878814942,19.9540720558354,21.3826146427998,21.7853641708066,73,739056.186377315,34.5658933333333,-88.6309778333333,0.011832212,257.66,190.6,5,32,16,66,-838449,-603.472,21,19-Jun-2023 04:28:23
74,74,24.693,-18.552,2.665,0.3726527,0.34323275,10.0616229,-3,2.1,-1.4,475,2023,2391,29.45,25.8546217422893,19.8642808250471,21.5371108104541,21.5990512032878,74,739056.186388889,34.5658895,-88.6309796666667,0.080253264,256.87,191.5,5,31,16,64,-839051,-603.566,21,19-Jun-2023 04:28:24
75,75,24.678,-18.591,2.774,0.392266,0.3334261,10.0420096,-3.2,2.2,-1.4,490,2065,2446,29.45,26.0600495558792,20.1191087507352,21.4134735239949,21.5835584615703,75,739056.186400463,34.565885,-88.6309798333333,0.210407596,256.08,192.5,5,30,15,62,-839653,-603.347,21,19-Jun-2023 04:28:25
76,76,24.659,-18.623,2.889,0.392266,0.32361945,10.0616229,-3.1,2.2,-1.4,468,2073,2411,29.45,25.7352612517153,19.9990280357209,21.5216384306769,21.6610732933889,76,739056.186412037,34.565876,-88.6309831666667,0.29837752,255.3,194.1,5,30,15,61,-840255,-603.404,21,19-Jun-2023 04:28:26
77,77,24.651,-18.631,3.028,0.3726527,0.34323275,10.0223963,-3.1,2.2,-1.4,390,2123,2432,29.47,25.8375490515186,19.9990280357209,21.5371108104541,21.5990512032878,77,739056.186423611,34.565876,-88.630979,0.197032052,254.52,194,5,29,15,60,-840859,-603.555,21,19-Jun-2023 04:28:27
78,78,24.634,-18.657,3.149,0.3726527,0.34323275,10.0223963,-3,2.2,-1.4,461,2065,2501,29.47,26.4740316310669,19.8343860274557,21.5835584615703,21.6765916280356,78,739056.186435185,34.5658715,-88.6309793333333,0.217609812,253.73,194.8,5,29,14,59,-841462,-603.61,21,19-Jun-2023 04:28:28
79,79,24.639,-18.709,3.246,0.34323275,0.3138128,10.05181625,-3,2.2,-1.4,532,2023,2404,29.47,26.5781904509576,19.8941934001497,21.305555172856,21.754260488288,79,739056.186446759,34.5658655,-88.630981,0.181598732,252.95,195.7,5,28,14,57,-842064,-603.43,21,19-Jun-2023 04:28:29
80,80,24.645,-18.732,3.366,0.36284605,0.36284605,10.002783,-3,2.2,-1.3,468,2058,2411,29.48,26.1459495281923,20.0740446057789,21.5216384306769,21.5371108104541,80,739056.186458333,34.565857,-88.6309876666667,0.082825484,252.16,197.3,5,27,14,56,-842665,-603.316,21,19-Jun-2023 04:28:30
81,81,24.655,-18.781,3.469,0.3530394,0.32361945,10.0223963,-3,2.1,-1.4,511,2044,2384,29.5,26.4047410997985,19.9990280357209,21.4134735239949,21.863214166866,81,739056.186469907,34.5658523333333,-88.630992,0.089513256,251.38,198.3,5,27,13,55,-843267,-603.293,21,19-Jun-2023 04:28:31
82,82,24.617,-18.786,3.604,0.392266,0.3530394,10.05181625,-3.1,2.2,-1.5,433,2037,2418,29.5,25.9572070640853,20.1191087507352,21.5371108104541,21.5680708196798,82,739056.186481482,34.5658456666667,-88.6309981666667,0.067392164,250.59,199.7,5,27,13,54,-843869,-603.404,21,19-Jun-2023 04:28:32
83,83,24.651,-18.829,3.711,0.34323275,0.3334261,10.0223963,-3,2.2,-1.3,504,2108,2377,29.51,26.5955763985468,20.1491741901621,21.4289105090908,21.5835584615703,83,739056.186493056,34.5658416666667,-88.6310013333333,0.026751088,249.81,200.7,5,26,13,54,-844471,-603.379,21,19-Jun-2023 04:28:33
84,84,24.628,-18.864,3.827,0.392266,0.3334261,10.0223963,-3.2,2.1,-1.4,482,2058,2466,29.52,26.8922924379012,19.8941934001497,21.6921151000855,21.8009237813338,84,739056.18650463,34.5658341666667,-88.6310056666667,0.094143252,249.02,202.3,5,26,13,53,-845073,-603.29,21,19-Jun-2023 04:28:34
85,85,24.654,-18.903,3.941,0.3530394,0.3530394,9.9635564,-3.1,2.1,-1.5,475,2080,2391,29.52,26.7174884671978,20.0890614595459,21.444352532051,21.832058572682,85,739056.186516204,34.5658226666667,-88.631013,0.086941036,248.24,204.6,5,25,13,52,-845673,-603.192,21,19-Jun-2023 04:28:35
86,86,24.62,-18.913,4.078,0.38245935,0.34323275,10.0223963,-3,2.1,-1.5,426,2087,2521,29.54,26.7174884671978,19.9990280357209,21.2901582699171,21.9255879680943,86,739056.186527778,34.565812,-88.6310195,0.189829836,247.45,206.8,5,25,12,52,-846273,-603.256,21,19-Jun-2023 04:28:36
87,87,24.634,-18.939,4.203,0.3334261,0.34323275,9.99297635,-3.2,2.2,-1.3,454,2073,2411,29.52,26.3010267790856,20.1341391991633,21.3517758393543,21.6145490510742,87,739056.186539352,34.5658016666667,-88.6310235,0.228413136,246.67,208.9,5,25,12,51,-846873,-603.109,21,19-Jun-2023 04:28:37
88,88,24.656,-18.984,4.312,0.36284605,0.3334261,9.99297635,-3.1,2.2,-1.5,490,2123,2418,29.53,26.5434410042216,19.8941934001497,21.5061711258425,21.7231774815723,88,739056.186550926,34.5657923333333,-88.6310266666667,0.159992084,245.88,210.8,5,25,12,51,-847473,-602.837,21,19-Jun-2023 04:28:38
89,89,24.64,-19.007,4.44,0.3530394,0.32361945,10.0420096,-3.3,2.1,-1.5,454,2087,2466,29.56,26.8222794320384,19.8792348877113,21.3980415706122,21.754260488288,89,739056.1865625,34.5657866666667,-88.6310285,0.07973882,245.09,211.8,5,24,12,50,-848074,-602.791,21,19-Jun-2023 04:28:39
90,90,24.646,-19.04,4.56,0.36284605,0.3334261,9.99297635,-3,2.2,-1.5,461,2108,2432,29.55,26.8572706452586,20.0740446057789,21.5216384306769,21.7231774815723,90,739056.186574074,34.5657795,-88.6310305,0.255164224,244.31,213.3,5,24,12,50,-848675,-602.87,21,19-Jun-2023 04:28:40
91,91,24.626,-19.059,4.694,0.38245935,0.32361945,10.03220295,-3.1,2.3,-1.4,426,2087,2397,29.57,26.9624280839943,20.0890614595459,21.3826146427998,21.5680708196798,91,739056.186585648,34.5657713333333,-88.6310335,0.186228728,243.53,215,5,24,12,49,-849276,-602.995,21,19-Jun-2023 04:28:41
92,92,24.654,-19.092,4.807,0.3334261,0.3530394,10.01258965,-3.1,2.2,-1.4,511,2101,2411,29.55,26.6303707911778,20.1341391991633,21.4289105090908,21.645560089862,92,739056.186597222,34.5657643333333,-88.6310361666667,0.248990896,242.74,216.6,5,24,12,49,-849877,-602.875,21,19-Jun-2023 04:28:42
93,93,24.656,-19.108,4.938,0.36284605,0.34323275,10.03220295,-3,2.1,-1.4,447,2137,2418,29.57,27.015110690718,19.9690528983467,21.6300520111794,21.5990512032878,93,739056.186608796,34.5657581666667,-88.6310395,0.103403244,241.96,217.9,5,24,12,49,-850478,-602.8,21,19-Jun-2023 04:28:43
94,94,24.665,-19.11,5.074,0.3530394,0.38245935,10.0420096,-3.2,2.2,-1.4,461,2108,2377,29.58,27.0326870180709,20.0890614595459,21.3517758393543,21.8476337662319,94,739056.18662037,34.5657555,-88.6310423333333,0.143529876,241.17,218.6,5,23,12,48,-851081,-602.861,21,19-Jun-2023 04:28:44
95,95,24.657,-19.121,5.201,0.3334261,0.36284605,10.05181625,-3,2.3,-1.4,490,2037,2418,29.58,27.0326870180709,19.9990280357209,21.444352532051,21.5835584615703,95,739056.186631944,34.5657535,-88.6310433333333,0.12089434,240.39,219.1,5,23,11,48,-851684,-602.933,21,19-Jun-2023 04:28:45
96,96,24.659,-19.167,5.308,0.3726527,0.3334261,10.01258965,-3.1,2.2,-1.4,518,2065,2404,29.57,27.015110690718,20.0440244544369,21.3517758393543,21.7853641708066,96,739056.186643519,34.5657525,-88.631045,0.447051836,239.6,219.6,5,23,11,48,-852288,-603.226,21,19-Jun-2023 04:28:46
97,97,24.656,-19.192,5.435,0.3530394,0.34323275,10.002783,-3.1,2.3,-1.4,461,2094,2459,29.62,26.9799812338679,19.9840382231602,21.5371108104541,21.754260488288,97,739056.186655093,34.5657515,-88.6310445,0.338504152,238.82,219.7,5,23,11,48,-852892,-603.221,21,19-Jun-2023 04:28:47
98,98,24.647,-19.203,5.574,0.3530394,0.3334261,10.0420096,-3,2.2,-1.4,426,2144,2453,29.61,26.7698497730338,20.1792578219599,21.5371108104541,21.5216384306769,98,739056.186666667,34.5657476666667,-88.6310471666667,0.176968736,238.03,220.8,5,23,11,47,-853494,-603.097,21,19-Jun-2023 04:28:48
99,99,24.641,-19.232,5.7,0.392266,0.3334261,10.0223963,-3.2,2.1,-1.4,454,2130,2397,29.59,27.191223775913,19.849331206759,21.5835584615703,21.645560089862,99,739056.186678241,34.5657425,-88.6310515,0.193430944,237.25,222.2,5,23,11,47,-854096,-603.132,21,19-Jun-2023 04:28:49
100,100,24.651,-19.275,5.811,0.38245935,0.34323275,10.002783,-3,2.1,-1.4,511,2130,2439,29.61,27.3149687407203,20.0440244544369,21.305555172856,21.7853641708066,100,739056.186689815,34.5657423333333,-88.6310553333333,0.235615352,236.46,222.4,5,23,11,47,-854701,-603.4,21,19-Jun-2023 04:28:50
101,101,24.648,-19.288,5.946,0.36284605,0.36284605,10.01258965,-3.2,2.3,-1.4,447,2080,2377,29.61,27.3503954958284,20.0890614595459,21.3671927344227,21.7853641708066,101,739056.186701389,34.5657343333333,-88.6310606666667,0.2186387,235.68,224.5,5,23,11,47,-855302,-603.285,21,19-Jun-2023 04:28:51
102,102,24.628,-19.301,6.075,0.34323275,0.36284605,10.0420096,-3.1,2.3,-1.4,497,2044,2494,29.61,26.9273448905347,19.8941934001497,21.5680708196798,21.6921151000855,102,739056.186712963,34.5657268333333,-88.6310625,0.190858724,234.89,226.5,5,23,11,47,-855902,-603.124,21,19-Jun-2023 04:28:52
103,103,24.584,-19.296,6.232,0.392266,0.34323275,10.0420096,-3.2,2.1,-1.3,376,2108,2446,29.61,27.1559387781262,20.2394798397551,21.3826146427998,21.8009237813338,103,739056.186724537,34.5657248333333,-88.6310635,0.093114364,234.11,227.4,5,22,11,46,-856505,-603.182,21,19-Jun-2023 04:28:53
104,104,24.559,-19.301,6.371,0.3530394,0.34323275,10.07142955,-3.1,2.4,-1.4,447,2080,2459,29.62,27.4746395835381,20.1040828393648,21.3363639514761,21.8009237813338,104,739056.186736111,34.5657228333333,-88.6310655,0.116264344,233.32,228.2,5,22,11,46,-857108,-603.247,21,19-Jun-2023 04:28:54
105,105,24.544,-19.342,6.489,0.392266,0.3334261,10.01258965,-3.2,2.1,-1.4,490,2065,2432,29.64,27.2442100905179,20.0290211458974,21.4907088897507,21.6145490510742,105,739056.186747685,34.565733,-88.6310551666667,0.209378708,232.54,226.4,6,22,11,46,-857713,-603.288,21,19-Jun-2023 04:28:55
106,106,24.542,-19.352,6.625,0.36284605,0.3530394,10.0616229,-3.1,2.2,-1.3,454,2130,2411,29.64,27.4924206826668,20.1491741901621,21.4752517162094,21.4752517162094,106,739056.186759259,34.565739,-88.631048,0.41927186,231.75,225.4,6,22,10,45,-858318,-603.416,21,19-Jun-2023 04:28:56
107,107,24.54,-19.393,6.747,0.3726527,0.32361945,9.99297635,-3,2,-1.4,461,2080,2391,29.63,27.599276027096,19.849331206759,21.305555172856,21.8164885798388,107,739056.186770833,34.5657443333333,-88.6310408333333,0.2958053,230.97,224.5,6,22,10,45,-858923,-603.356,21,19-Jun-2023 04:28:57
108,108,24.566,-19.427,6.866,0.36284605,0.3530394,10.01258965,-3.1,2.3,-1.4,490,2151,2404,29.63,27.4746395835381,20.1341391991633,21.5061711258425,21.6921151000855,108,739056.186782407,34.5657428333333,-88.6310381666667,0.3729719,230.18,225.1,6,21,9.7,44,-859525,-603.248,21,19-Jun-2023 04:28:58
109,109,24.566,-19.461,6.985,0.3726527,0.34323275,10.01258965,-2.9,2.3,-1.4,497,2087,2425,29.65,27.4568664915997,20.1341391991633,21.5216384306769,21.6300520111794,109,739056.186793981,34.5657396666667,-88.6310375,0.276256428,229.4,226,6,21,9.6,43,-860127,-603.062,21,19-Jun-2023 04:28:59
110,110,24.553,-19.484,7.114,0.36284605,0.3530394,10.0223963,-3.2,2.3,-1.4,482,2073,2466,29.65,27.3858539830213,20.1792578219599,21.4752517162094,21.754260488288,110,739056.186805556,34.5657418333333,-88.6310348333333,0.06687772,228.61,225.7,6,21,9.4,43,-860730,-602.972,21,19-Jun-2023 04:29:00
111,111,24.515,-19.498,7.258,0.40207265,0.3530394,9.99297635,-3.1,2.3,-1.4,418,2051,2446,29.65,27.7959348754235,19.939095690188,21.305555172856,21.8787997809704,111,739056.18681713,34.5657401666667,-88.6310353333333,0.12089434,227.83,226.1,6,21,9.4,43,-861332,-602.841,21,19-Jun-2023 04:29:01
112,112,24.529,-19.533,7.375,0.3530394,0.3530394,10.002783,-3,2.1,-1.4,511,2101,2453,29.66,27.1559387781262,19.9840382231602,21.3826146427998,21.8009237813338,112,739056.186828704,34.5657408333333,-88.631035,0.127582112,227.04,226,6,21,9.3,43,-861935,-602.819,21,19-Jun-2023 04:29:02
113,113,24.53,-19.565,7.499,0.38245935,0.3530394,10.002783,-3.1,2.1,-1.5,482,2087,2384,29.66,27.831797229182,19.8792348877113,21.5371108104541,21.9099866751769,113,739056.186840278,34.5657381666667,-88.6310365,0.283973088,226.26,226.6,6,20,9.2,42,-862537,-602.74,21,19-Jun-2023 04:29:03
114,114,24.505,-19.586,7.627,0.36284605,0.34323275,10.0616229,-3.1,2.1,-1.3,504,2037,2432,29.67,27.8676924790378,20.0140223414805,21.4752517162094,21.6300520111794,114,739056.186851852,34.5657403333333,-88.6310368333333,0.286545308,225.47,226.1,6,20,9.1,42,-863142,-602.761,21,19-Jun-2023 04:29:04
115,115,24.487,-19.607,7.759,0.3726527,0.34323275,10.03220295,-3.1,2.3,-1.4,468,2073,2439,29.68,27.7959348754235,20.0290211458974,21.2901582699171,21.7853641708066,115,739056.186863426,34.5657448333333,-88.6310355,0.048357736,224.69,225.2,6,20,9.1,42,-863746,-602.661,21,19-Jun-2023 04:29:05
116,116,24.49,-19.639,7.883,0.3726527,0.3530394,10.002783,-3.1,2.2,-1.5,490,2094,2432,29.67,27.9395820208133,20.059032272571,21.4907088897507,21.7076437158309,116,739056.186875,34.56575,-88.6310346666667,0.181084288,223.9,224.3,6,20,9,42,-864351,-602.916,21,19-Jun-2023 04:29:06
117,117,24.487,-19.677,8.001,0.3726527,0.3530394,9.99297635,-3,2.2,-1.4,518,2051,2446,29.68,28.0476652732661,20.1191087507352,21.645560089862,21.9099866751769,117,739056.186886574,34.5657521666667,-88.6310336666667,0.034982192,223.12,223.8,6,20,8.9,41,-864955,-602.933,21,19-Jun-2023 04:29:07
118,118,24.498,-19.727,8.118,0.36284605,0.3138128,10.002783,-3.2,2.2,-1.3,497,2144,2466,29.68,27.7780160070484,19.939095690188,21.5835584615703,21.7231774815723,118,739056.186898148,34.5657546666667,-88.6310333333333,0.083854372,222.33,223.1,6,20,8.8,41,-865559,-602.929,21,19-Jun-2023 04:29:08
119,119,24.494,-19.769,8.235,0.392266,0.32361945,10.03220295,-3.1,2.1,-1.4,511,2130,2439,29.69,28.0837597660741,19.9990280357209,21.5990512032878,21.832058572682,119,739056.186909722,34.5657563333333,-88.6310328333333,0.10546102,221.55,222.5,6,19,8.6,41,-866162,-602.983,21,19-Jun-2023 04:29:09
120,120,24.5,-19.787,8.372,0.3726527,0.36284605,10.002783,-3.2,2.1,-1.3,461,2151,2446,29.7,27.7959348754235,20.164213729252,21.4597995990347,21.9568062776607,120,739056.186921296,34.5657536666667,-88.6310348333333,0.045785516,220.76,222.9,6,19,8.6,40,-866764,-602.979,21,19-Jun-2023 04:29:10
121,121,24.465,-19.787,8.523,0.38245935,0.3530394,10.0420096,-3,2.2,-1.4,426,2058,2397,29.71,28.0476652732661,20.2093596903726,21.305555172856,21.9880455951086,121,739056.18693287,34.5657531666667,-88.6310358333333,0.035496636,219.98,222.7,6,19,8.5,40,-867368,-603.028,21,19-Jun-2023 04:29:11
122,122,24.434,-19.797,8.665,0.3726527,0.3530394,10.03220295,-3,2.1,-1.4,461,2065,2487,29.73,27.831797229182,20.164213729252,21.5216384306769,21.8943906149396,122,739056.186944444,34.5657508333333,-88.631038,0.103917688,219.19,223,6,19,8.4,40,-867971,-603.031,21,19-Jun-2023 04:29:12
123,123,24.422,-19.837,8.789,0.392266,0.3334261,10.002783,-3.2,2.2,-1.4,490,2094,2459,29.72,28.210355064225,20.059032272571,21.5525882713828,21.754260488288,123,739056.186956019,34.5657481666667,-88.6310403333333,0.168737632,218.41,223.3,6,19,8.4,40,-868574,-603.126,21,19-Jun-2023 04:29:13
124,124,24.417,-19.851,8.928,0.36284605,0.36284605,10.01258965,-3,2.2,-1.5,461,2094,2446,29.73,28.3919255570378,19.8941934001497,21.5371108104541,21.863214166866,124,739056.186967593,34.5657488333333,-88.631041,0.155362088,217.62,222.8,6,19,8.3,40,-869179,-603.253,21,19-Jun-2023 04:29:14
125,125,24.399,-19.852,9.077,0.3530394,0.3726527,10.0223963,-3.1,2.2,-1.4,447,2065,2473,29.72,28.319195106567,19.8343860274557,21.5525882713828,21.6300520111794,125,739056.186979167,34.5657431666667,-88.631045,0.234586464,216.84,223.9,6,19,8.2,40,-869781,-603.122,21,19-Jun-2023 04:29:15
126,126,24.383,-19.872,9.215,0.3726527,0.36284605,9.99297635,-3.2,2.3,-1.4,461,2037,2432,29.72,27.9215972273901,20.0890614595459,21.6145490510742,21.6765916280356,126,739056.186990741,34.5657461666667,-88.6310441666667,0.520102884,216.05,222.9,5,19,8.3,40,-870387,-603.473,21,19-Jun-2023 04:29:16
127,127,24.357,-19.87,9.364,0.38245935,0.38245935,10.0420096,-3,2.2,-1.3,454,2073,2466,29.72,28.373730110742,19.9990280357209,21.2439974335734,21.8476337662319,127,739056.187002315,34.5657513333333,-88.6310413333333,0.33953304,215.76,221.4,5,19,8.3,40,-870994,-603.464,21,19-Jun-2023 04:29:17
128,128,24.355,-19.896,9.498,0.3530394,0.34323275,10.01258965,-3,2.2,-1.5,461,2065,2404,29.74,28.210355064225,19.9540720558354,21.5835584615703,21.8787997809704,128,739056.187013889,34.5657533333333,-88.631041,0.07202216,215.46,220.8,6,19,8.4,40,-871599,-603.318,21,19-Jun-2023 04:29:18
129,129,24.377,-19.923,9.628,0.3334261,0.36284605,9.99297635,-3.1,2.1,-1.4,482,2073,2384,29.75,27.9215972273901,20.0290211458974,21.4289105090908,21.7853641708066,129,739056.187025463,34.5657485,-88.6310456666667,0.01028888,215.17,221.8,6,19,8.4,40,-872201,-603.213,21,19-Jun-2023 04:29:19
130,130,24.357,-19.945,9.762,0.38245935,0.3530394,10.03220295,-3,2.2,-1.4,482,2058,2439,29.76,28.210355064225,19.939095690188,21.5525882713828,21.9099866751769,130,739056.187037037,34.5657473333333,-88.6310471666667,0.024178868,214.88,222,6,19,8.3,39,-872804,-603.255,21,19-Jun-2023 04:29:20
131,131,24.351,-19.974,9.903,0.36284605,0.3334261,9.9831697,-3.2,2.3,-1.5,418,2065,2377,29.75,28.1741428509239,20.0740446057789,21.3980415706122,21.9099866751769,131,739056.187048611,34.5657481666667,-88.6310473333333,0.044242184,214.58,221.7,6,19,8.2,39,-873408,-603.365,21,19-Jun-2023 04:29:21
132,132,24.345,-19.994,10.04,0.3530394,0.34323275,10.0420096,-3,2.2,-1.5,468,2101,2453,29.77,28.6658928260042,20.0890614595459,21.6300520111794,21.7076437158309,132,739056.187060185,34.5657466666667,-88.6310486666667,0.03601108,214.29,222,6,19,8.2,39,-874012,-603.382,21,19-Jun-2023 04:29:22
133,133,24.29,-19.992,10.195,0.36284605,0.34323275,10.0812362,-3,2.2,-1.3,433,2008,2459,29.74,28.4101295784741,19.9990280357209,21.5525882713828,21.645560089862,133,739056.187071759,34.5657478333333,-88.6310485,0.099287692,214,221.7,6,19,8.1,39,-874616,-603.475,21,19-Jun-2023 04:29:23
134,134,24.275,-20.035,10.32,0.3530394,0.30400615,10.03220295,-3,2.4,-1.3,490,2037,2446,29.76,28.2647368614312,20.1341391991633,21.5525882713828,21.7698097419057,134,739056.187083333,34.5657478333333,-88.631049,0.047328848,213.7,221.6,6,19,8.1,39,-875220,-603.545,21,19-Jun-2023 04:29:24
135,135,24.272,-20.063,10.454,0.3726527,0.3530394,10.002783,-3,2.2,-1.3,475,2094,2487,29.78,28.301033844803,19.8792348877113,21.4289105090908,21.9255879680943,135,739056.187094907,34.5657491666667,-88.6310486666667,0.038068856,213.41,221.4,6,18,8,39,-875825,-603.627,21,19-Jun-2023 04:29:25
136,136,24.285,-20.085,10.592,0.3530394,0.36284605,10.002783,-3,2.3,-1.5,461,2123,2459,29.75,28.2466011167982,19.939095690188,21.6300520111794,21.6921151000855,136,739056.187106482,34.5657466666667,-88.6310503333333,0.354451916,213.12,222.2,6,18,7.9,39,-876428,-603.789,21,19-Jun-2023 04:29:26
137,137,24.263,-20.107,10.731,0.3726527,0.3530394,10.01258965,-3,2.3,-1.3,468,2044,2480,29.79,28.8312158505885,19.849331206759,21.3826146427998,21.8943906149396,137,739056.187118056,34.5657445,-88.6310508333333,0.279343092,212.82,222.9,6,19,7.9,39,-877032,-603.73,21,19-Jun-2023 04:29:27
138,138,24.257,-20.147,10.867,0.3726527,0.3138128,9.99297635,-3.1,2.2,-1.4,433,2094,2418,29.8,28.8864825760401,20.0140223414805,21.3826146427998,22.0193059720476,138,739056.18712963,34.565743,-88.6310506666667,0.103403244,212.53,223.3,6,19,7.9,39,-877635,-603.572,21,19-Jun-2023 04:29:28
139,139,24.25,-20.175,10.995,0.3726527,0.34323275,10.0616229,-3,2.2,-1.4,511,2101,2466,29.79,28.6292509554109,20.1040828393648,21.5061711258425,21.832058572682,139,739056.187141204,34.5657385,-88.6310525,0.085397704,212.24,224.4,6,18,7.8,39,-878237,-603.45,21,19-Jun-2023 04:29:29
140,140,24.248,-20.204,11.135,0.3726527,0.3334261,10.002783,-3,2.2,-1.3,440,2115,2439,29.79,28.1198877799642,20.1792578219599,21.3363639514761,21.7231774815723,140,739056.187152778,34.5657366666667,-88.631052,0.119865452,211.94,224.8,6,18,7.8,38,-878839,-603.436,21,19-Jun-2023 04:29:30
141,141,24.234,-20.219,11.277,0.3726527,0.3530394,10.05181625,-3,2.1,-1.4,468,2101,2466,29.81,28.2466011167982,20.224417477166,21.3671927344227,21.8943906149396,141,739056.187164352,34.5657346666667,-88.631052,0.019548872,211.65,225.3,6,18,7.8,38,-879442,-603.547,21,19-Jun-2023 04:29:31
142,142,24.235,-20.235,11.422,0.34323275,0.36284605,10.002783,-3,2.2,-1.4,447,2051,2404,29.8,28.5377988130975,20.0890614595459,21.4752517162094,21.9255879680943,142,739056.187175926,34.5657351666667,-88.6310508333333,0.101345468,211.36,225.2,6,18,7.8,38,-880046,-603.637,21,19-Jun-2023 04:29:32
143,143,24.229,-20.254,11.575,0.3530394,0.34323275,9.9831697,-3,2.1,-1.4,397,2087,2425,29.8,28.7760288679945,19.9690528983467,21.3980415706122,22.0193059720476,143,739056.1871875,34.5657345,-88.6310506666667,0.0514444,211.07,225.3,6,18,7.8,38,-880649,-603.691,21,19-Jun-2023 04:29:33
144,144,24.219,-20.269,11.718,0.3726527,0.3726527,10.0223963,-3.1,2.3,-1.5,461,2051,2404,29.82,28.4647932101647,19.9690528983467,21.5525882713828,21.754260488288,144,739056.187199074,34.5657336666667,-88.6310513333333,0.047843292,210.77,225.5,6,18,7.8,38,-881253,-603.73,21,19-Jun-2023 04:29:34
145,145,24.22,-20.292,11.857,0.3726527,0.36284605,10.01258965,-3.1,2.1,-1.5,461,2094,2418,29.83,28.8312158505885,20.0140223414805,21.5061711258425,22.0036731479105,145,739056.187210648,34.565729,-88.6310536666667,0.163078748,210.48,226.5,6,18,7.8,38,-881855,-603.654,21,19-Jun-2023 04:29:35
146,146,24.206,-20.335,11.977,0.392266,0.3334261,10.05181625,-3.1,2.2,-1.4,532,2065,2446,29.82,29.1454580394962,20.0440244544369,21.5525882713828,21.9568062776607,146,739056.187222222,34.565728,-88.6310546666667,0.405381872,210.19,226.5,6,18,7.8,38,-882460,-604.006,21,19-Jun-2023 04:29:36
147,147,24.201,-20.368,12.109,0.36284605,0.32361945,10.0616229,-3,2.1,-1.3,490,2094,2418,29.85,28.9602961558161,20.164213729252,21.5061711258425,21.9880455951086,147,739056.187233796,34.5657245,-88.6310558333333,0.321013056,209.89,227.1,6,18,7.7,38,-883064,-604.012,21,19-Jun-2023 04:29:37
148,148,24.21,-20.396,12.24,0.36284605,0.36284605,10.0223963,-3.1,2.4,-1.5,497,2087,2425,29.85,29.0712851460385,19.9990280357209,21.5525882713828,21.8164885798388,148,739056.18724537,34.5657206666667,-88.631057,0.046814404,209.6,228,6,18,7.7,38,-883667,-603.733,21,19-Jun-2023 04:29:38
149,149,24.209,-20.424,12.378,0.3530394,0.36284605,9.99297635,-3.2,2.1,-1.3,482,2030,2411,29.83,28.7760288679945,20.0740446057789,21.4752517162094,22.0818901115404,149,739056.187256944,34.5657206666667,-88.631057,0.140957656,209.31,227.9,6,18,7.7,38,-884270,-603.699,21,19-Jun-2023 04:29:39
150,150,24.216,-20.477,12.497,0.36284605,0.3334261,9.99297635,-3.2,2.2,-1.4,525,2073,2466,29.84,28.9787718845428,20.164213729252,21.5525882713828,21.863214166866,150,739056.187268518,34.5657173333333,-88.6310585,0.013375544,209.01,228.6,6,18,7.6,38,-884872,-603.591,21,19-Jun-2023 04:29:40
151,151,24.217,-20.506,12.63,0.36284605,0.36284605,10.01258965,-3.2,2.1,-1.4,504,2080,2459,29.87,28.8864825760401,20.1491741901621,21.6300520111794,21.8476337662319,151,739056.187280093,34.5657148333333,-88.6310595,0.01028888,208.72,229.1,6,18,7.6,38,-885475,-603.632,21,19-Jun-2023 04:29:41
152,152,24.197,-20.525,12.776,0.3726527,0.3726527,9.99297635,-3.2,2.2,-1.4,468,2030,2466,29.84,29.1454580394962,20.2093596903726,21.3209570646775,21.9724233071772,152,739056.187291667,34.5657123333333,-88.63106,0.035496636,208.43,229.6,6,18,7.5,37,-886077,-603.556,21,19-Jun-2023 04:29:42
153,153,24.2,-20.574,12.904,0.38245935,0.32361945,9.99297635,-3.1,2.1,-1.4,482,2101,2411,29.85,29.256989723861,20.2093596903726,21.4752517162094,21.8943906149396,153,739056.187303241,34.5657113333333,-88.6310595,0.130154332,208.13,229.7,6,18,7.4,37,-886680,-603.592,21,19-Jun-2023 04:29:43
154,154,24.206,-20.613,13.033,0.3726527,0.34323275,10.002783,-3,2.3,-1.4,497,2087,2411,29.86,28.9233715234212,20.1792578219599,21.3826146427998,21.9255879680943,154,739056.187314815,34.5657128333333,-88.6310576666667,0.055045508,207.84,229.3,6,18,7.4,37,-887285,-603.697,21,19-Jun-2023 04:29:44
155,155,24.181,-20.638,13.175,0.3726527,0.36284605,9.99297635,-3.2,2.2,-1.3,490,2008,2473,29.9,28.4647932101647,19.849331206759,21.5525882713828,21.7698097419057,155,739056.187326389,34.5657156666667,-88.6310551666667,0.074079936,207.55,228.7,6,18,7.3,37,-887889,-603.799,21,19-Jun-2023 04:29:45
156,156,24.165,-20.664,13.311,0.38245935,0.3530394,10.03220295,-3,2.1,-1.4,504,2080,2487,29.86,29.1269012427221,20.1943064738198,21.4752517162094,21.9724233071772,156,739056.187337963,34.5657166666667,-88.631054,0.360625244,207.25,228.6,6,17,7.3,37,-888494,-603.979,21,19-Jun-2023 04:29:46
157,157,24.169,-20.676,13.454,0.3530394,0.36284605,10.07142955,-3,2.2,-1.4,490,2123,2432,29.87,28.5377988130975,20.0290211458974,21.6300520111794,22.0193059720476,157,739056.187349537,34.5657213333333,-88.6310505,0.373486344,206.96,227.4,6,17,7.3,37,-889101,-604.026,21,19-Jun-2023 04:29:47
158,158,24.158,-20.696,13.602,0.3726527,0.3530394,10.01258965,-3.1,2.2,-1.4,447,2108,2473,29.88,28.9972565713452,20.0440244544369,21.5216384306769,21.8164885798388,158,739056.187361111,34.56573,-88.6310451666667,0.039612188,209.32,225.3,6,17,7.2,37,-889708,-603.875,21,19-Jun-2023 04:29:48
159,159,24.165,-20.717,13.749,0.32361945,0.34323275,10.03220295,-3.2,2.2,-1.4,454,2073,2384,29.89,29.0898148084569,19.939095690188,21.5371108104541,21.9880455951086,159,739056.187372685,34.5657351666667,-88.631042,0.018519984,211.67,224,6,17,7.1,36,-890313,-603.723,21,19-Jun-2023 04:29:49
160,160,24.16,-20.739,13.893,0.40207265,0.3726527,9.99297635,-3,2.2,-1.4,454,2087,2384,29.88,28.7209213014818,19.939095690188,21.6145490510742,21.8787997809704,160,739056.187384259,34.5657415,-88.6310388333333,0.06944994,214.03,222.4,6,17,7.1,36,-890919,-603.759,21,19-Jun-2023 04:29:50
161,161,24.166,-20.769,14.037,0.34323275,0.3334261,10.01258965,-3.1,2.2,-1.4,447,2108,2418,29.9,29.2383783203433,20.0740446057789,21.6610732933889,21.8476337662319,161,739056.187395833,34.5657436666667,-88.6310373333333,0.096201028,216.39,221.9,6,17,7,36,-891524,-603.651,21,19-Jun-2023 04:29:51
162,162,24.164,-20.79,14.186,0.3530394,0.3530394,10.01258965,-3.1,2.1,-1.3,447,2080,2404,29.91,28.7760288679945,20.059032272571,21.6145490510742,22.0036731479105,162,739056.187407407,34.5657448333333,-88.6310361666667,0.084368816,218.74,221.6,6,17,6.9,36,-892128,-603.548,21,19-Jun-2023 04:29:52
163,163,24.137,-20.806,14.34,0.392266,0.3530394,10.03220295,-3.1,2,-1.6,426,2087,2411,29.89,29.052764503515,20.0140223414805,21.6145490510742,21.8009237813338,163,739056.187418981,34.565752,-88.6310328333333,0.02829442,221.1,219.9,6,17,6.9,36,-892734,-603.698,21,19-Jun-2023 04:29:53
164,164,24.118,-20.827,14.484,0.392266,0.36284605,10.03220295,-3.2,2.3,-1.4,475,2080,2459,29.9,29.2942399791693,19.9091563677665,21.4289105090908,21.8476337662319,164,739056.187430556,34.5657573333333,-88.6310305,0.054531064,223.46,218.6,6,17,6.8,36,-893340,-603.851,21,19-Jun-2023 04:29:54
165,165,24.127,-20.863,14.616,0.3726527,0.3530394,10.0223963,-3.1,2.2,-1.4,504,2094,2404,29.91,29.2756102725845,20.0740446057789,21.5371108104541,22.1132139780181,165,739056.18744213,34.5657643333333,-88.6310268333333,0.032409972,225.82,216.9,6,17,6.8,36,-893947,-603.99,21,19-Jun-2023 04:29:55
166,166,24.093,-20.863,14.78,0.36284605,0.3726527,10.0420096,-3.2,2.2,-1.4,426,2015,2411,29.92,28.7392816864103,20.1491741901621,21.6921151000855,21.832058572682,166,739056.187453704,34.5657665,-88.6310258333333,0.243332012,228.17,216.5,6,17,6.8,36,-894552,-604.109,21,19-Jun-2023 04:29:56
167,167,24.088,-20.889,14.92,0.38245935,0.3530394,10.05181625,-3.1,2.2,-1.3,482,2101,2411,29.91,29.2942399791693,19.849331206759,21.6300520111794,22.0036731479105,167,739056.187465278,34.5657666666667,-88.6310258333333,0.304550848,230.53,216.6,6,17,6.7,36,-895157,-604.179,21,19-Jun-2023 04:29:57
168,168,24.075,-20.948,15.052,0.4118793,0.3138128,9.9635564,-3.1,2.1,-1.3,461,2080,2432,29.93,29.4436088410518,19.9690528983467,21.7076437158309,22.0193059720476,168,739056.187476852,34.565768,-88.6310251666667,0.08231104,232.89,216.3,6,17,6.7,36,-895762,-604.011,21,19-Jun-2023 04:29:58
169,169,24.046,-20.965,15.206,0.40207265,0.3530394,10.0420096,-3.2,2.1,-1.5,433,2080,2418,29.89,29.4623215416627,19.9690528983467,21.6921151000855,21.8164885798388,169,739056.187488426,34.5657696666667,-88.6310248333333,0.117807676,235.24,216,6,17,6.7,36,-896367,-603.912,21,19-Jun-2023 04:29:59
170,170,24.07,-20.992,15.343,0.3530394,0.3726527,10.0223963,-3.1,1.9,-1.4,504,2137,2446,29.93,29.052764503515,19.9540720558354,21.5680708196798,22.0505874602278,170,739056.1875,34.5657723333333,-88.6310233333333,0.101345468,237.6,215.4,6,17,6.7,36,-896971,-603.795,21,19-Jun-2023 04:30:00
171,171,24.046,-21.007,15.497,0.36284605,0.3530394,10.0420096,-3,2.2,-1.3,454,2058,2480,29.95,29.4623215416627,20.1040828393648,21.6921151000855,21.9255879680943,171,739056.187511574,34.5657741666667,-88.6310215,0.081282152,239.96,214.9,6,17,6.6,36,-897576,-603.79,21,19-Jun-2023 04:30:01
172,172,24.031,-21.018,15.65,0.38245935,0.38245935,10.03220295,-3.2,2.1,-1.4,461,2080,2459,29.95,29.5560245884482,19.9840382231602,21.3980415706122,21.8164885798388,172,739056.187523148,34.56578,-88.631018,0.039097744,242.31,213.6,6,17,6.6,36,-898181,-603.919,21,19-Jun-2023 04:30:02
173,173,24.028,-21.062,15.778,0.36284605,0.3334261,10.03220295,-3,2.2,-1.3,525,2044,2439,29.94,29.4997748128318,20.164213729252,21.5061711258425,22.0193059720476,173,739056.187534722,34.5657843333333,-88.6310145,0.032924416,244.67,212.5,6,17,6.6,36,-898787,-604.025,21,19-Jun-2023 04:30:03
174,174,24.013,-21.07,15.947,0.3530394,0.3530394,10.0223963,-3.1,2.1,-1.3,383,2115,2480,29.94,28.6109431182328,20.1040828393648,21.6921151000855,21.863214166866,174,739056.187546296,34.5657903333333,-88.6310096666667,0.019034428,247.03,211,6,17,6.5,36,-899393,-604.022,21,19-Jun-2023 04:30:04
175,175,24.019,-21.114,16.081,0.36284605,0.32361945,10.03220295,-3.1,2.3,-1.4,482,2115,2439,29.94,29.5372653301113,20.0440244544369,21.4907088897507,21.9568062776607,175,739056.18755787,34.5657953333333,-88.6310051666667,0.032924416,249.39,210,6,17,6.5,36,-899998,-604.083,21,19-Jun-2023 04:30:05
176,176,24.015,-21.137,16.228,0.3530394,0.3726527,10.002783,-3.1,2.2,-1.5,475,2051,2473,29.94,29.8007506046911,19.849331206759,21.6145490510742,22.0505874602278,176,739056.187569444,34.5658006666667,-88.6310006666667,0.13375544,251.74,208.9,6,17,6.5,36,-900604,-604.224,21,19-Jun-2023 04:30:06
177,177,24.003,-21.156,16.383,0.3726527,0.34323275,10.05181625,-3,2.3,-1.3,433,2108,2432,29.96,29.4997748128318,20.0440244544369,21.6921151000855,21.9255879680943,177,739056.187581019,34.565805,-88.6309968333333,0.306608624,254.1,208.1,6,17,6.4,36,-901210,-604.368,21,19-Jun-2023 04:30:07
178,178,23.99,-21.169,16.538,0.392266,0.38245935,10.01258965,-2.9,2.2,-1.4,440,2087,2453,29.97,29.7064363690648,19.9540720558354,21.5990512032878,21.8943906149396,178,739056.187592593,34.565809,-88.6309931666667,0.060189948,256.46,207.4,6,16,6.4,35,-901815,-604.145,21,19-Jun-2023 04:30:08
179,179,23.972,-21.187,16.694,0.38245935,0.3726527,10.01258965,-3.2,2.2,-1.4,440,2058,2453,29.97,29.687601940934,19.9091563677665,21.6921151000855,22.0349440739926,179,739056.187604167,34.5658178333333,-88.6309875,0.173882072,258.81,205.5,6,16,6.4,35,-902421,-604.146,21,19-Jun-2023 04:30:09
180,180,23.969,-21.207,16.852,0.38245935,0.36284605,10.002783,-2.9,2.2,-1.4,404,2123,2432,29.97,29.4436088410518,20.0140223414805,21.4597995990347,22.1445591118358,180,739056.187615741,34.5658273333333,-88.6309818333333,0.226869804,261.17,203.5,6,16,6.4,35,-903028,-604.163,21,19-Jun-2023 04:30:10
181,181,23.932,-21.233,17.008,0.392266,0.3530394,10.002783,-3.1,2.3,-1.5,426,2001,2439,29.98,29.2756102725845,19.8642808250471,21.4907088897507,22.0505874602278,181,739056.187627315,34.5658368333333,-88.630976,0.084368816,263.53,201.5,6,16,6.3,35,-903634,-604.24,21,19-Jun-2023 04:30:11
182,182,23.917,-21.264,17.164,0.36284605,0.32361945,10.0223963,-3.1,2.2,-1.4,404,2080,2432,29.99,29.6123585183631,19.9540720558354,21.6610732933889,22.1916168033089,182,739056.187638889,34.5658478333333,-88.630969,0.186743172,265.88,199,6,16,6.3,35,-904242,-604.302,21,19-Jun-2023 04:30:12
183,183,23.895,-21.288,17.317,0.40207265,0.34323275,10.05181625,-3,2.3,-1.4,433,2094,2432,30,29.3315269166582,20.0890614595459,21.4752517162094,22.1445591118358,183,739056.187650463,34.5658543333333,-88.630964,0.076137712,268.24,197.4,6,16,6.3,35,-904848,-604.298,21,19-Jun-2023 04:30:13
184,184,23.908,-21.325,17.455,0.3726527,0.36284605,10.01258965,-3.2,2.2,-1.3,490,2080,2418,29.99,29.5372653301113,20.1943064738198,21.5680708196798,22.1288838832429,184,739056.187662037,34.5658583333333,-88.6309603333333,0.072536604,270.6,196.5,6,16,6.3,35,-905453,-604.266,21,19-Jun-2023 04:30:14
185,185,23.912,-21.374,17.59,0.36284605,0.3334261,10.002783,-3.1,2.1,-1.4,490,2080,2473,30,30.0661022077148,19.939095690188,21.5525882713828,22.1445591118358,185,739056.187673611,34.56586,-88.6309583333333,0.06687772,272.95,196.2,6,16,6.3,35,-906057,-604.211,21,19-Jun-2023 04:30:15
186,186,23.925,-21.41,17.733,0.3726527,0.3530394,10.002783,-3.1,2.3,-1.5,454,2115,2425,30,29.9900948798332,19.8792348877113,21.5525882713828,21.9724233071772,185,739056.187673611,34.56586,-88.6309583333333,0.06687772,275.31,196.2,6,17,6.7,36,-906661,-604.053,21,19-Jun-2023 04:30:15
187,187,23.929,-21.444,17.876,0.3530394,0.34323275,10.0420096,-3.2,2.1,-1.4,482,2115,2480,30,29.7818687673849,20.1191087507352,21.7387164036188,22.1602396703408,185,739056.187673611,34.56586,-88.6309583333333,0.06687772,277.67,196.2,6,17,6.7,36,-907265,-604.053,21,19-Jun-2023 04:30:15
188,188,23.911,-21.468,18.033,0.3726527,0.3530394,10.01258965,-3.1,2.2,-1.3,433,2051,2446,30,29.687601940934,20.1191087507352,21.3980415706122,22.2230153346802,188,739056.187708333,34.56579,-88.6310188333333,0.33181638,280.03,196.7,4,18,8.4,37,-907869,-604.291,21,19-Jun-2023 04:30:18
189,189,23.89,-21.493,18.186,0.3726527,0.3334261,10.0616229,-3.1,2.2,-1.3,447,2080,2459,30.03,29.9711172223771,19.7597265274826,21.5216384306769,22.1759255653112,189,739056.187719907,34.565794,-88.6309808333333,0.271111988,282.38,196.4,4,18,7.9,37,-908474,-604.393,21,19-Jun-2023 04:30:19
190,190,23.88,-21.511,18.344,0.3530394,0.36284605,10.03220295,-3.2,2.2,-1.4,440,2030,2397,30,29.5372653301113,19.8343860274557,21.4289105090908,21.9880455951086,190,739056.187731482,34.565798,-88.6309701666667,0.315868616,284.74,195.9,5,18,7.7,37,-909080,-604.4,21,19-Jun-2023 04:30:20
191,191,23.911,-21.564,18.48,0.3530394,0.34323275,9.9635564,-3,2.1,-1.4,468,2130,2453,30.01,30.1422649074738,20.1341391991633,21.6921151000855,21.9880455951086,191,739056.187743056,34.5658073333333,-88.63095,0.201147604,287.1,194.1,5,18,7.6,38,-909689,-604.726,21,19-Jun-2023 04:30:21
192,192,23.906,-21.593,18.631,0.36284605,0.3334261,10.05181625,-3.1,2.2,-1.4,440,2073,2356,30.02,30.1994894233715,19.9840382231602,21.6921151000855,22.097549389626,192,739056.18775463,34.5658058333333,-88.6309501666667,0.1929165,289.45,194.6,3,18,8.5,39,-910293,-604.726,21,19-Jun-2023 04:30:22
193,193,23.911,-21.631,18.779,0.38245935,0.3334261,10.0223963,-3,2.1,-1.5,433,2165,2446,30,29.7441336045911,20.0140223414805,21.7231774815723,22.1916168033089,192,739056.18775463,34.5658058333333,-88.6309501666667,0.1929165,291.81,194.6,3,18,8.5,39,-910898,-604.726,21,19-Jun-2023 04:30:22
194,194,23.914,-21.664,18.928,0.3530394,0.3530394,9.99297635,-3,2.3,-1.5,447,2051,2404,30.04,29.7818687673849,20.0740446057789,21.5835584615703,22.0036731479105,194,739056.187777778,34.5658106666667,-88.6309366666667,0.137356548,294.17,194.3,4,20,10,40,-911502,-604.505,21,19-Jun-2023 04:30:24
195,195,23.912,-21.714,19.069,0.38245935,0.34323275,9.97336305,-3.1,2.3,-1.4,475,2065,2459,30.04,29.9900948798332,19.9690528983467,21.4597995990347,22.0036731479105,195,739056.187789352,34.5658136666667,-88.6309251666667,0.118836564,296.52,194.3,4,20,9.2,41,-912106,-604.356,21,19-Jun-2023 04:30:25
196,196,23.912,-21.759,19.217,0.36284605,0.3138128,10.01258965,-3.1,2.2,-1.3,433,2080,2363,30.01,29.9331908218483,19.8941934001497,21.5835584615703,22.0505874602278,196,739056.187800926,34.5658208333333,-88.6309213333333,0.158448752,298.88,193.6,4,20,8.9,42,-912712,-604.356,21,19-Jun-2023 04:30:26
197,197,23.921,-21.791,19.366,0.34323275,0.34323275,10.0223963,-3.1,2.2,-1.4,454,2087,2397,30.04,29.4623215416627,20.1191087507352,21.7076437158309,22.1445591118358,197,739056.1878125,34.5658271666667,-88.6309176666667,0.104946576,301.24,192.6,4,20,8.7,42,-913317,-604.434,21,19-Jun-2023 04:30:27
198,198,23.916,-21.813,19.521,0.392266,0.36284605,10.03220295,-3,2.1,-1.3,447,2151,2473,30.05,30.5447032639655,20.0740446057789,21.6300520111794,21.9880455951086,198,739056.187824074,34.5658305,-88.6309103333333,0.096715472,303.6,192.1,4,20,8.6,43,-913922,-604.417,21,19-Jun-2023 04:30:28
199,199,23.917,-21.848,19.67,0.392266,0.3530394,10.01258965,-3.1,2.3,-1.3,454,2130,2439,30.06,30.047085843808,20.0440244544369,21.6300520111794,21.9255879680943,199,739056.187835648,34.5658315,-88.6309116666667,0.212979816,305.95,191.6,5,20,8.5,43,-914527,-604.365,21,19-Jun-2023 04:30:29
200,200,23.899,-21.897,19.808,0.392266,0.32361945,10.0223963,-3,2.3,-1.4,497,2044,2425,30.07,29.9521492075617,19.9540720558354,21.6145490510742,22.1916168033089,200,739056.187847222,34.5658346666667,-88.6309121666667,0.209378708,308.31,190.5,5,20,8.6,44,-915133,-604.502,21,19-Jun-2023 04:30:30
201,201,23.908,-21.935,19.953,0.36284605,0.34323275,10.002783,-2.9,2.1,-1.4,468,2115,2453,30.06,30.2376881129825,20.1040828393648,21.6765916280356,22.3173398467076,201,739056.187858796,34.5658353333333,-88.6309135,0.271111988,310.67,190.3,5,20,8.7,44,-915737,-604.477,21,19-Jun-2023 04:30:31
202,202,23.924,-21.989,20.084,0.38245935,0.34323275,10.002783,-3.2,2.3,-1.4,518,2094,2391,30.05,30.218583857705,20.1191087507352,21.832058572682,22.1602396703408,202,739056.18787037,34.5658366666667,-88.6309151666667,0.327700828,313.02,190.2,5,20,8.8,45,-916340,-604.25,21,19-Jun-2023 04:30:32
203,203,23.915,-22.02,20.233,0.40207265,0.3726527,10.002783,-3.2,2.1,-1.3,490,2094,2473,30.06,30.1613299620862,19.8045089642718,21.6765916280356,22.0349440739926,203,739056.187881944,34.5658388333333,-88.6309165,0.56074396,315.38,190.3,5,20,8.9,46,-916942,-604.098,21,19-Jun-2023 04:30:33
204,204,23.896,-22.041,20.388,0.3726527,0.34323275,10.07142955,-3,2.1,-1.4,468,2073,2411,30.05,29.8953028836977,19.8792348877113,21.5061711258425,22.0662361372438,204,739056.187893518,34.565846,-88.6309138333333,0.266481992,315.65,188.7,5,20,8.9,46,-917548,-604.259,21,19-Jun-2023 04:30:34
205,205,23.906,-22.084,20.533,0.3726527,0.3334261,10.01258965,-3.2,2.2,-1.5,454,2115,2370,30.1,30.3525206644053,20.0140223414805,21.6610732933889,21.9880455951086,205,739056.187905093,34.5658475,-88.630914,0.203719824,315.93,188.3,5,20,8.8,46,-918152,-604.261,21,19-Jun-2023 04:30:35
206,206,23.913,-22.113,20.684,0.3726527,0.3530394,10.03220295,-3,2.2,-1.4,461,2137,2418,30.09,30.4100706542071,19.8792348877113,21.4134735239949,22.097549389626,206,739056.187916667,34.5658461666667,-88.6309158333333,0.209893152,316.2,188.7,5,20,8.6,45,-918754,-604.237,21,19-Jun-2023 04:30:36
207,207,23.901,-22.129,20.847,0.36284605,0.36284605,10.03220295,-3,2.1,-1.4,440,2073,2425,30.09,30.6798288547621,20.3148604845412,21.5835584615703,22.0349440739926,207,739056.187928241,34.5658415,-88.630918,0.276770872,316.47,189.9,5,20,8.5,45,-919356,-604.135,21,19-Jun-2023 04:30:37
208,208,23.903,-22.17,20.986,0.3726527,0.3530394,10.01258965,-3,2.2,-1.3,518,2065,2432,30.07,30.5254399660856,19.939095690188,21.5835584615703,22.0036731479105,208,739056.187939815,34.5658376666667,-88.6309196666667,0.058646616,316.75,191,5,20,8.5,44,-919958,-604.13,21,19-Jun-2023 04:30:38
209,209,23.906,-22.196,21.142,0.38245935,0.36284605,10.0223963,-3.1,2.3,-1.3,447,2123,2404,30.1,30.0280791769472,20.1341391991633,21.5680708196798,22.0662361372438,209,739056.187951389,34.5658348333333,-88.6309225,0.025207756,317.02,192.4,5,20,8.4,44,-920560,-604.147,21,19-Jun-2023 04:30:39
210,210,23.907,-22.227,21.295,0.36284605,0.34323275,10.0420096,-3.1,2,-1.3,461,2094,2377,30.09,30.2759261419752,20.0290211458974,21.8009237813338,22.0505874602278,210,739056.187962963,34.565829,-88.6309251666667,0.26751088,317.29,193.9,5,20,8.4,44,-921162,-604.205,21,19-Jun-2023 04:30:40
211,211,23.916,-22.278,21.437,0.3530394,0.32361945,9.99297635,-3,2.2,-1.4,475,2080,2404,30.11,30.5061867146173,20.0740446057789,21.6300520111794,22.1916168033089,211,739056.187974537,34.5658281666667,-88.6309251666667,0.054531064,317.56,193.9,5,20,8.4,44,-921767,-604.099,21,19-Jun-2023 04:30:41
212,212,23.918,-22.329,21.574,0.3726527,0.34323275,9.99297635,-3.2,2.2,-1.4,518,2037,2391,30.12,30.4484870959073,19.9540720558354,21.4907088897507,22.0505874602278,212,739056.187986111,34.5658263333333,-88.6309258333333,0.060189948,317.84,194.5,5,19,8.3,44,-922370,-603.883,21,19-Jun-2023 04:30:42
213,213,23.886,-22.352,21.734,0.38245935,0.34323275,10.05181625,-3.1,2.3,-1.3,461,2023,2391,30.11,29.8763733043078,19.9840382231602,21.645560089862,22.0349440739926,213,739056.187997685,34.5658253333333,-88.6309256666667,0.10031658,318.11,194.9,5,19,8.3,44,-922973,-603.874,21,19-Jun-2023 04:30:43
214,214,23.87,-22.399,21.881,0.36284605,0.30400615,10.03220295,-3,2.1,-1.3,475,2051,2418,30.1,30.6025535793882,20.1943064738198,21.7231774815723,22.1759255653112,214,739056.188009259,34.5658238333333,-88.6309261666667,0.0385833,318.38,195.6,5,19,8.1,43,-923575,-603.952,21,19-Jun-2023 04:30:44
215,215,23.844,-22.42,22.049,0.3726527,0.3530394,10.0223963,-3.2,2.2,-1.2,433,2051,2459,30.13,30.5447032639655,20.059032272571,21.832058572682,22.1445591118358,215,739056.188020833,34.5658266666667,-88.6309243333333,0.023664424,318.66,195.1,5,19,8,43,-924180,-603.977,21,19-Jun-2023 04:30:45
216,216,23.845,-22.47,22.184,0.38245935,0.3334261,10.0223963,-3,2.3,-1.4,532,2080,2446,30.13,30.7766516975126,20.1040828393648,21.7387164036188,22.1445591118358,216,739056.188032407,34.5658243333333,-88.6309243333333,0.1414721,318.93,195.7,5,19,7.9,42,-924783,-603.964,21,19-Jun-2023 04:30:46
217,217,23.867,-22.515,22.326,0.3726527,0.34323275,10.002783,-2.9,2.3,-1.3,490,2123,2391,30.13,30.218583857705,19.8642808250471,21.754260488288,22.1288838832429,217,739056.188043981,34.5658226666667,-88.6309238333333,0.073565492,319.2,196,5,19,7.8,42,-925387,-603.97,21,19-Jun-2023 04:30:47
218,218,23.871,-22.556,22.475,0.38245935,0.34323275,10.002783,-3,2.1,-1.3,475,2123,2446,30.15,30.1613299620862,19.9241237959733,21.645560089862,22.1602396703408,218,739056.188055556,34.5658166666667,-88.6309258333333,0.12603878,319.48,197.6,5,19,7.8,42,-925988,-603.868,21,19-Jun-2023 04:30:48
219,219,23.858,-22.591,22.636,0.38245935,0.34323275,9.9831697,-3.1,2.2,-1.4,426,2087,2453,30.15,29.9331908218483,19.849331206759,21.6300520111794,22.3330794687371,219,739056.18806713,34.565812,-88.6309273333333,0.12603878,319.75,198.7,5,19,7.8,42,-926591,-603.923,21,19-Jun-2023 04:30:49
220,220,23.868,-22.629,22.791,0.3334261,0.3334261,10.002783,-3.1,2.2,-1.3,454,2073,2397,30.15,30.4869434952698,20.1341391991633,21.6921151000855,22.2387226412228,220,739056.188078704,34.5658071666667,-88.630929,0.343648592,320.02,199.9,5,18,7.7,41,-927194,-604.181,21,19-Jun-2023 04:30:50
221,221,23.877,-22.677,22.936,0.3530394,0.32361945,10.002783,-3,2.1,-1.5,482,2101,2425,30.13,30.990565201373,20.1191087507352,21.7076437158309,22.3016056271714,221,739056.188090278,34.5658061666667,-88.6309281666667,0.260823108,320.29,200.3,5,18,7.7,41,-927799,-604.26,21,19-Jun-2023 04:30:51
222,222,23.881,-22.72,23.088,0.36284605,0.32361945,10.01258965,-3.1,2.2,-1.4,454,2101,2384,30.17,31.049122764701,20.1341391991633,21.8009237813338,22.2701533690134,222,739056.188101852,34.5658046666667,-88.6309271666667,0.0643055,320.57,200.6,5,18,7.7,41,-928403,-604.167,21,19-Jun-2023 04:30:52
223,223,23.873,-22.75,23.253,0.3726527,0.34323275,10.002783,-3.2,2.2,-1.4,418,2123,2459,30.15,30.5254399660856,20.1491741901621,21.5216384306769,22.2701533690134,223,739056.188113426,34.565806,-88.6309258333333,0.093114364,320.84,200.1,5,18,7.7,41,-929008,-604.199,21,19-Jun-2023 04:30:53
224,224,23.86,-22.787,23.407,0.36284605,0.3334261,10.0223963,-3.1,2.1,-1.4,482,2073,2466,30.17,30.7378919587593,20.1792578219599,21.8009237813338,22.1288838832429,224,739056.188125,34.5658023333333,-88.6309266666667,0.007202216,321.11,201.1,5,18,7.7,41,-929611,-604.247,21,19-Jun-2023 04:30:54
225,225,23.89,-22.829,23.546,0.38245935,0.36284605,10.01258965,-3.1,2.2,-1.3,518,2151,2377,30.2,30.7572667181237,19.8941934001497,21.5216384306769,22.364574946897,225,739056.188136574,34.5657948333333,-88.6309298333333,0.164107636,321.39,203.1,5,18,7.7,41,-930212,-604.227,21,19-Jun-2023 04:30:55
226,226,23.874,-22.863,23.706,0.3726527,0.3530394,9.9831697,-3.2,2.2,-1.3,468,2044,2466,30.17,30.7185274048004,20.0890614595459,21.6765916280356,22.3803308163606,226,739056.188148148,34.5657953333333,-88.6309285,0.042184408,321.66,203,5,18,7.7,41,-930817,-604.298,21,19-Jun-2023 04:30:56
227,227,23.888,-22.917,23.851,0.3334261,0.3334261,9.9635564,-3.2,2.2,-1.2,504,2037,2418,30.18,30.4677102937789,20.1491741901621,21.7853641708066,22.364574946897,227,739056.188159722,34.5657953333333,-88.6309281666667,0.021606648,321.93,203.1,6,18,7.7,41,-931421,-604.327,21,19-Jun-2023 04:30:57
228,228,23.863,-22.934,24.02,0.40207265,0.36284605,10.03220295,-3.1,2.2,-1.3,440,2101,2453,30.18,30.3525206644053,19.939095690188,21.5061711258425,22.1602396703408,228,739056.188171296,34.5657933333333,-88.6309288333333,0.049901068,322.21,203.7,6,18,7.7,41,-932025,-604.328,21,19-Jun-2023 04:30:58
229,229,23.88,-22.97,24.171,0.34323275,0.3530394,10.01258965,-3.2,2.2,-1.3,497,2101,2425,30.21,30.4484870959073,20.1191087507352,21.8009237813338,22.3330794687371,229,739056.18818287,34.56579,-88.6309293333333,0.093628808,322.48,204.5,6,18,7.8,41,-932628,-604.337,21,19-Jun-2023 04:30:59
230,230,23.847,-23.008,24.326,0.3726527,0.32361945,10.03220295,-3.1,2.2,-1.4,497,2030,2494,30.21,30.9710668288675,20.1191087507352,21.6921151000855,22.5698266443105,230,739056.188194444,34.5657885,-88.6309293333333,0.27779976,322.75,204.9,6,18,7.8,41,-933233,-604.689,21,19-Jun-2023 04:31:00
231,231,23.841,-23.034,24.489,0.36284605,0.36284605,10.002783,-2.9,2.2,-1.3,468,2044,2411,30.2,30.6218572063636,19.8194452817526,21.8009237813338,22.4434086527592,231,739056.188206019,34.5657828333333,-88.6309311666667,0.30352196,323.02,206.3,6,18,7.8,41,-933836,-604.644,21,19-Jun-2023 04:31:01
232,232,23.854,-23.055,24.651,0.34323275,0.3726527,10.01258965,-3.1,2.3,-1.4,461,2094,2418,30.22,30.7185274048004,19.939095690188,21.6300520111794,22.42763102648,232,739056.188217593,34.5657793333333,-88.630932,0.081282152,323.3,207,6,18,7.9,41,-934439,-604.461,21,19-Jun-2023 04:31:02
233,233,23.857,-23.093,24.807,0.38245935,0.34323275,10.01258965,-3.1,2.1,-1.3,454,2115,2384,30.2,30.4292738874446,20.0740446057789,21.645560089862,22.0818901115404,233,739056.188229167,34.5657766666667,-88.6309323333333,0.18777206,323.57,207.6,6,18,7.9,41,-935043,-604.398,21,19-Jun-2023 04:31:03
234,234,23.833,-23.103,24.98,0.34323275,0.34323275,10.0812362,-3,2.2,-1.4,440,2058,2425,30.2,30.834868102432,20.1040828393648,21.832058572682,22.4749802799681,234,739056.188240741,34.5657733333333,-88.6309343333333,0.0385833,323.84,208.5,6,19,8,41,-935646,-604.358,21,19-Jun-2023 04:31:03
235,235,23.829,-23.141,25.128,0.36284605,0.32361945,10.07142955,-3,2.1,-1.3,511,2101,2439,30.2,31.284296950487,19.9091563677665,21.6145490510742,22.1916168033089,235,739056.188252315,34.5657713333333,-88.630935,0.042698852,324.12,208.9,6,19,8,41,-936250,-604.36,21,19-Jun-2023 04:31:05
236,236,23.809,-23.17,25.295,0.3726527,0.3530394,10.002783,-3,2,-1.4,447,2051,2459,30.21,30.2376881129825,20.1341391991633,21.7698097419057,22.2073133909052,236,739056.188263889,34.565764,-88.6309388333333,0.238702016,324.39,210.7,6,19,8,41,-936852,-604.321,21,19-Jun-2023 04:31:06
237,237,23.802,-23.204,25.455,0.36284605,0.34323275,10.01258965,-3.1,2.3,-1.5,454,2087,2480,30.23,30.6604948295831,19.9840382231602,21.5835584615703,22.2073133909052,237,739056.188275463,34.5657565,-88.6309425,0.18777206,324.66,212.5,6,19,8.1,41,-937454,-604.28,21,19-Jun-2023 04:31:07
238,238,23.788,-23.236,25.619,0.36284605,0.34323275,10.01258965,-3,2.2,-1.4,454,2044,2439,30.23,31.049122764701,20.0140223414805,21.9099866751769,22.3960921149843,238,739056.188287037,34.5657473333333,-88.6309476666667,0.215552036,324.94,214.7,6,19,8.1,41,-938055,-604.238,21,19-Jun-2023 04:31:08
239,239,23.78,-23.274,25.778,0.36284605,0.3530394,9.9831697,-3,2.3,-1.4,468,2001,2397,30.23,31.0100739715184,19.8194452817526,21.8009237813338,22.3173398467076,239,739056.188298611,34.5657386666667,-88.6309533333333,0.292718636,325.21,216.8,6,19,8.1,41,-938657,-604.167,21,19-Jun-2023 04:31:09
240,240,23.766,-23.287,25.961,0.3726527,0.3530394,10.0420096,-3.1,2.1,-1.3,369,2130,2439,30.26,31.6002473575193,20.164213729252,21.7853641708066,22.3173398467076,240,739056.188310185,34.5657326666667,-88.6309575,0.283458644,325.48,218.4,6,19,8.1,41,-939260,-604.312,21,19-Jun-2023 04:31:10
241,241,23.77,-23.318,26.123,0.36284605,0.3530394,10.01258965,-2.9,2.2,-1.2,447,2094,2432,30.23,31.0295931542895,20.0290211458974,21.7076437158309,22.5540051813591,241,739056.188321759,34.5657296666667,-88.63096,0.398179656,325.76,219.4,6,19,8.1,41,-939864,-604.429,21,19-Jun-2023 04:31:11
242,242,23.766,-23.35,26.282,0.34323275,0.34323275,10.0420096,-3.2,2.1,-1.4,482,2073,2480,30.22,31.0686628177963,19.9840382231602,21.645560089862,22.4749802799681,242,739056.188333333,34.5657241666667,-88.6309635,0.273169764,326.03,220.7,6,19,8.1,41,-940468,-604.319,21,19-Jun-2023 04:31:12
243,243,23.761,-23.373,26.461,0.3530394,0.34323275,10.0223963,-3,2.2,-1.2,376,2108,2432,30.27,30.8154523749782,20.1040828393648,21.8787997809704,22.4434086527592,243,739056.188344907,34.5657171666667,-88.6309678333333,0.09259992,326.3,222.4,6,19,8.1,41,-941070,-604.131,21,19-Jun-2023 04:31:13
244,244,23.77,-23.425,26.611,0.34323275,0.32361945,10.002783,-3.1,2.3,-1.4,475,2051,2404,30.28,30.4869434952698,19.8194452817526,21.8009237813338,22.42763102648,244,739056.188356481,34.5657103333333,-88.630972,0.194459832,326.57,224.2,6,19,8.1,41,-941672,-604.256,21,19-Jun-2023 04:31:14
245,245,23.777,-23.449,26.775,0.36284605,0.3726527,10.0223963,-3,2.3,-1.4,454,2073,2384,30.27,31.0882133286479,20.1341391991633,21.7076437158309,22.4749802799681,245,739056.188368056,34.5657,-88.6309766666667,0.29066086,326.85,226.8,6,19,8.1,41,-942273,-604.27,21,19-Jun-2023 04:31:15
246,246,23.778,-23.49,26.932,0.36284605,0.34323275,10.002783,-3,2.1,-1.4,461,2094,2473,30.28,30.256802203099,19.8194452817526,21.8164885798388,22.5856536173137,246,739056.18837963,34.5656906666667,-88.630981,0.343648592,327.12,229.2,6,19,8.1,41,-942875,-604.332,21,19-Jun-2023 04:31:16
247,247,23.787,-23.539,27.083,0.36284605,0.3334261,10.002783,-3,2.2,-1.4,475,2080,2404,30.26,31.6200860328369,20.0440244544369,21.9099866751769,22.3960921149843,247,739056.188391204,34.5656815,-88.6309855,0.341076372,327.39,231.4,6,19,8,41,-943477,-604.365,21,19-Jun-2023 04:31:17
248,248,23.795,-23.581,27.237,0.38245935,0.3530394,10.002783,-3.1,2.3,-1.3,468,2101,2411,30.28,30.9515788390446,19.9690528983467,21.7853641708066,22.2701533690134,248,739056.188402778,34.565669,-88.6309915,0.371943012,327.67,234.5,6,19,8,41,-944077,-604.194,21,19-Jun-2023 04:31:18
249,249,23.815,-23.633,27.383,0.3334261,0.32361945,10.01258965,-3,2.1,-1.4,497,2087,2411,30.29,31.0882133286479,19.8792348877113,21.6610732933889,22.459191735013,249,739056.188414352,34.5656645,-88.6309945,0.292204192,327.94,235.6,6,19,8,41,-944681,-604.247,21,19-Jun-2023 04:31:19
250,250,23.801,-23.669,27.538,0.392266,0.3726527,10.002783,-3.2,2.1,-1.4,518,2023,2446,30.29,31.4814431450454,19.9840382231602,21.645560089862,22.617324120693,250,739056.188425926,34.5656586666667,-88.6309973333333,0.358053024,328.21,236.9,6,19,8,41,-945284,-604.364,21,19-Jun-2023 04:31:20
251,251,23.792,-23.703,27.701,0.3726527,0.3530394,10.01258965,-3.1,2.1,-1.3,468,2073,2466,30.29,31.4616802686951,19.9840382231602,21.7076437158309,22.2230153346802,251,739056.1884375,34.5656545,-88.630999,0.410011868,328.49,237.8,6,19,8,40,-945889,-604.435,21,19-Jun-2023 04:31:21
252,252,23.774,-23.724,27.88,0.392266,0.3530394,10.0223963,-2.9,2.3,-1.5,369,2115,2425,30.29,30.4677102937789,20.0890614595459,21.9411945001125,22.4749802799681,252,739056.188449074,34.5656493333333,-88.6310005,0.282429756,328.76,239,6,19,8,40,-946492,-604.503,21,19-Jun-2023 04:31:22
253,253,23.768,-23.781,28.033,0.36284605,0.3138128,9.99297635,-3.1,2.3,-1.5,468,2044,2439,30.3,31.049122764701,20.1491741901621,21.8787997809704,22.5856536173137,253,739056.188460648,34.5656476666667,-88.631001,0.028808864,329.03,239.4,6,19,8.1,41,-947096,-604.329,21,19-Jun-2023 04:31:23
254,254,23.779,-23.84,28.172,0.3530394,0.3334261,9.99297635,-3.1,2.3,-1.4,553,2044,2466,30.33,31.0686628177963,19.8642808250471,21.863214166866,22.4434086527592,254,739056.188472222,34.5656448333333,-88.6310023333333,0.096201028,329.3,239.9,6,19,8.1,41,-947700,-604.239,21,19-Jun-2023 04:31:24
255,255,23.79,-23.891,28.321,0.392266,0.36284605,9.9635564,-3.2,2.3,-1.3,504,2065,2418,30.32,31.3039634997733,20.0440244544369,22.0036731479105,22.2387226412228,255,739056.188483796,34.5656443333333,-88.6310023333333,0.256193112,329.58,240.1,6,19,8.1,41,-948304,-604.285,21,19-Jun-2023 04:31:25
256,256,23.789,-23.919,28.484,0.3530394,0.36284605,10.0223963,-3,2.2,-1.2,497,2058,2466,30.31,30.7185274048004,20.1191087507352,21.7698097419057,22.3016056271714,256,739056.18849537,34.565643,-88.631003,0.079224376,329.85,240.6,6,19,8.2,41,-948908,-604.391,21,19-Jun-2023 04:31:26
257,257,23.807,-23.955,28.645,0.36284605,0.36284605,9.99297635,-3.2,2.3,-1.3,454,2130,2453,30.32,30.834868102432,19.8045089642718,21.8476337662319,22.4749802799681,257,739056.188506944,34.5656395,-88.631005,0.07459438,330.12,241.5,6,19,8.2,41,-949511,-604.399,21,19-Jun-2023 04:31:27
258,258,23.814,-23.998,28.803,0.3726527,0.3530394,9.99297635,-3.2,2.1,-1.4,468,2087,2411,30.33,31.1469277588983,20.1040828393648,21.8943906149396,22.5223787584506,258,739056.188518518,34.5656338333333,-88.6310081666667,0.053502176,330.4,243.1,6,19,8.2,41,-950114,-604.32,21,19-Jun-2023 04:31:28
259,259,23.814,-24.035,28.96,0.36284605,0.36284605,10.002783,-3.1,2.2,-1.3,511,2044,2453,30.32,31.4616802686951,19.9840382231602,21.9724233071772,22.5698266443105,259,739056.188530093,34.5656316666667,-88.6310095,0.084368816,330.67,243.8,6,19,8.2,41,-950717,-604.372,21,19-Jun-2023 04:31:29
260,260,23.814,-24.082,29.116,0.3726527,0.32361945,10.0223963,-3.1,2.2,-1.3,475,2137,2501,30.33,31.0686628177963,20.0440244544369,21.8009237813338,22.364574946897,260,739056.188541667,34.5656283333333,-88.631012,0.04629996,330.94,244.8,6,19,8.3,41,-951321,-604.436,21,19-Jun-2023 04:31:30
261,261,23.813,-24.1,29.293,0.34323275,0.3726527,10.01258965,-3.1,2.4,-1.4,426,2058,2425,30.37,31.5210012567349,19.8792348877113,21.863214166866,22.3488244999129,261,739056.188553241,34.5656238333333,-88.631015,0.05916106,331.22,246.1,6,19,8.3,41,-951924,-604.526,21,19-Jun-2023 04:31:31
262,262,23.825,-24.134,29.453,0.36284605,0.36284605,10.01258965,-3.1,2.2,-1.4,468,2101,2411,30.36,31.2057368543495,20.224417477166,21.7698097419057,22.3330794687371,262,739056.188564815,34.5656158333333,-88.6310196666667,0.13889988,331.49,248.3,6,19,8.3,42,-952525,-604.269,21,19-Jun-2023 04:31:32
263,263,23.833,-24.17,29.618,0.3334261,0.34323275,10.01258965,-3.1,2.3,-1.4,447,2065,2404,30.35,30.9126339477608,20.059032272571,21.8164885798388,22.5223787584506,263,739056.188576389,34.5656096666667,-88.6310233333333,0.065848832,331.76,249.8,6,19,8.4,42,-953127,-604.199,21,19-Jun-2023 04:31:33
264,264,23.836,-24.232,29.769,0.38245935,0.30400615,10.002783,-3.2,2.2,-1.3,454,2115,2397,30.39,31.4419281577348,19.939095690188,21.7231774815723,22.5381892216668,264,739056.188587963,34.5656018333333,-88.6310278333333,0.173367628,332.03,251.6,6,19,8.4,42,-953729,-604.263,21,19-Jun-2023 04:31:34
265,265,23.832,-24.259,29.934,0.36284605,0.38245935,10.002783,-3.1,2,-1.3,504,2051,2487,30.36,30.7378919587593,20.1491741901621,21.8476337662319,22.42763102648,265,739056.188599537,34.5655918333333,-88.6310333333333,0.326157496,332.31,253.9,6,19,8.4,42,-954331,-604.155,21,19-Jun-2023 04:31:35
266,266,23.818,-24.296,30.098,0.38245935,0.34323275,10.0223963,-3.1,2.2,-1.3,468,2073,2453,30.38,31.1861232788135,20.1341391991633,21.9568062776607,22.5540051813591,266,739056.188611111,34.5655928333333,-88.6310325,0.185714284,332.58,253.8,6,19,8.5,42,-954936,-604.263,21,19-Jun-2023 04:31:36
267,267,23.846,-24.324,30.257,0.3530394,0.392266,10.002783,-3.1,2.2,-1.3,497,2087,2384,30.38,31.3039634997733,20.1943064738198,21.7076437158309,22.4434086527592,267,739056.188622685,34.5655888333333,-88.6310346666667,0.117807676,332.85,254.7,6,19,8.5,42,-955539,-604.312,21,19-Jun-2023 04:31:37
268,268,23.856,-24.381,30.404,0.392266,0.32361945,10.01258965,-3.1,2.3,-1.3,482,2101,2342,30.38,31.3433285365196,20.224417477166,21.7231774815723,22.459191735013,268,739056.188634259,34.5655858333333,-88.6310368333333,0.256193112,333.13,255.2,6,19,8.5,42,-956144,-604.297,21,19-Jun-2023 04:31:38
269,269,23.853,-24.412,30.569,0.3334261,0.34323275,10.0420096,-3.2,2.4,-1.4,475,2051,2432,30.38,31.3039634997733,20.1341391991633,22.0349440739926,22.5540051813591,269,739056.188645833,34.565587,-88.6310366666667,0.109062128,333.4,254.8,6,19,8.5,42,-956750,-604.334,21,19-Jun-2023 04:31:39
270,270,23.854,-24.441,30.734,0.3530394,0.3530394,10.0420096,-3.1,2.2,-1.3,475,2065,2391,30.37,30.990565201373,20.1491741901621,21.7853641708066,22.5698266443105,270,739056.188657407,34.5655875,-88.6310368333333,0.132212108,333.67,254.6,6,19,8.5,42,-957355,-604.478,21,19-Jun-2023 04:31:40
271,271,23.858,-24.47,30.9,0.34323275,0.36284605,10.0223963,-3,2.3,-1.5,468,2044,2384,30.41,31.5210012567349,20.0440244544369,21.8943906149396,22.5223787584506,271,739056.188668981,34.565589,-88.6310361666667,0.137870992,333.95,254.3,6,19,8.5,42,-957961,-604.585,21,19-Jun-2023 04:31:41
272,272,23.85,-24.502,31.064,0.38245935,0.34323275,10.05181625,-3,2.1,-1.4,454,2115,2425,30.41,31.1077743123569,19.9540720558354,21.9411945001125,22.5381892216668,272,739056.188680556,34.565588,-88.6310368333333,0.26236644,334.22,254.6,6,19,8.6,42,-958567,-604.632,21,19-Jun-2023 04:31:42
273,273,23.866,-24.545,31.211,0.36284605,0.34323275,10.05181625,-3.2,2.2,-1.3,532,2137,2459,30.41,30.7572667181237,20.1191087507352,21.8787997809704,22.5223787584506,273,739056.18869213,34.5655835,-88.6310395,0.187257616,334.49,255.8,6,20,8.6,43,-959170,-604.464,21,19-Jun-2023 04:31:43
274,274,23.869,-24.59,31.369,0.392266,0.3726527,9.9635564,-3.1,2.2,-1.2,497,2073,2466,30.41,31.3433285365196,20.0890614595459,21.7076437158309,22.5698266443105,274,739056.188703704,34.5655806666667,-88.6310416666667,0.024693312,334.77,256.5,6,20,8.6,43,-959773,-604.37,21,19-Jun-2023 04:31:44
275,275,23.857,-24.631,31.535,0.36284605,0.34323275,10.002783,-3.2,2.2,-1.3,468,2058,2494,30.41,31.2646410266819,20.1040828393648,22.0505874602278,22.4907742943608,275,739056.188715278,34.5655781666667,-88.631043,0.112663236,335.04,257.4,6,20,8.6,43,-960376,-604.28,21,19-Jun-2023 04:31:45
276,276,23.844,-24.654,31.701,0.392266,0.38245935,10.03220295,-3,2.3,-1.4,497,2044,2425,30.42,30.9126339477608,19.9840382231602,22.0349440739926,22.364574946897,276,739056.188726852,34.5655801666667,-88.6310411666667,0.042698852,335.31,257,6,20,8.6,43,-960981,-604.368,21,19-Jun-2023 04:31:46
277,277,23.877,-24.698,31.853,0.3530394,0.36284605,10.002783,-3.2,2.1,-1.2,497,2130,2411,30.44,30.7766516975126,20.164213729252,21.8476337662319,22.6807315479997,277,739056.188738426,34.56558,-88.6310401666667,0.095686584,335.58,257.1,6,20,8.6,43,-961586,-604.346,21,19-Jun-2023 04:31:47
278,278,23.867,-24.721,32.028,0.38245935,0.3726527,10.0223963,-3,2.2,-1.5,426,2087,2425,30.43,31.8190744777211,20.0890614595459,21.8164885798388,22.5698266443105,278,739056.18875,34.5655826666667,-88.6310378333333,0.05916106,335.86,256.4,6,20,8.7,43,-962191,-604.398,21,19-Jun-2023 04:31:48
279,279,23.847,-24.786,32.191,0.40207265,0.3138128,9.95374975,-3.1,2.2,-1.3,426,2073,2494,30.44,31.5210012567349,20.1040828393648,21.754260488288,22.5698266443105,279,739056.188761574,34.5655866666667,-88.6310353333333,0.10031658,336.13,255.5,6,20,8.6,43,-962796,-604.324,21,19-Jun-2023 04:31:49
280,280,23.839,-24.819,32.357,0.392266,0.3726527,10.002783,-3.1,2.1,-1.5,468,2044,2397,30.46,31.3630270549196,20.1040828393648,22.0662361372438,22.5223787584506,280,739056.188773148,34.5655871666667,-88.6310345,0.08745548,336.4,255.4,6,20,8.6,43,-963401,-604.297,21,19-Jun-2023 04:31:50
281,281,23.834,-24.86,32.525,0.34323275,0.32361945,10.03220295,-3.2,2.3,-1.4,440,2073,2453,30.45,31.0295931542895,19.9840382231602,21.9880455951086,22.6807315479997,281,739056.188784722,34.5655888333333,-88.6310328333333,0.173367628,336.68,255.1,6,20,8.6,43,-964006,-604.366,21,19-Jun-2023 04:31:51
282,282,23.865,-24.919,32.672,0.34323275,0.3334261,9.9831697,-3,2.2,-1.4,497,2101,2411,30.46,31.54079652356,20.0140223414805,21.9255879680943,22.3960921149843,282,739056.188796296,34.5655925,-88.6310295,0.220182032,336.95,254.3,6,20,8.5,43,-964612,-604.512,21,19-Jun-2023 04:31:52
283,283,23.849,-24.949,32.845,0.3530394,0.34323275,10.0420096,-3.2,2.3,-1.3,461,2051,2473,30.46,31.4419281577348,20.0140223414805,21.9255879680943,22.4434086527592,283,739056.18880787,34.5655955,-88.6310271666667,0.18777206,337.22,253.8,6,20,8.5,42,-965218,-604.594,21,19-Jun-2023 04:31:53
284,284,23.863,-24.993,33.001,0.34323275,0.3530394,10.01258965,-3.3,2.3,-1.2,518,2037,2404,30.45,30.7378919587593,20.164213729252,21.9411945001125,22.5065737849367,284,739056.188819444,34.565597,-88.6310255,0.240759792,337.5,253.6,6,19,8.4,42,-965823,-604.621,21,19-Jun-2023 04:31:54
285,285,23.895,-25.049,33.149,0.34323275,0.34323275,9.9831697,-3.1,2.3,-1.4,511,2115,2453,30.47,31.6995498119876,19.8792348877113,22.0193059720476,22.5065737849367,285,739056.188831019,34.5656003333333,-88.6310231666667,0.062762168,337.77,253,6,19,8.3,42,-966429,-604.748,21,19-Jun-2023 04:31:55
286,286,23.879,-25.063,33.323,0.392266,0.3726527,10.07142955,-3,2.2,-1.2,468,2101,2453,30.47,31.3039634997733,20.1191087507352,21.754260488288,22.7442279013545,286,739056.188842593,34.5655991666667,-88.6310233333333,0.075108824,338.04,253.4,6,19,8.2,42,-967033,-604.689,21,19-Jun-2023 04:31:56
287,287,23.882,-25.1,33.485,0.3726527,0.3726527,10.002783,-3.2,2.1,-1.3,504,2037,2404,30.47,31.284296950487,20.1491741901621,21.8787997809704,22.6965972823552,287,739056.188854167,34.5656011666667,-88.631022,0.1157499,338.31,252.9,6,19,8.2,42,-967638,-604.811,21,19-Jun-2023 04:31:57
288,288,23.903,-25.154,33.628,0.3726527,0.36284605,9.9831697,-3.1,2.2,-1.4,561,2051,2404,30.49,31.4221867964979,20.1191087507352,21.8164885798388,22.6965972823552,288,739056.188865741,34.5656053333333,-88.63102,0.075623268,338.59,251.9,6,19,8.1,41,-968245,-604.925,21,19-Jun-2023 04:31:58
289,289,23.894,-25.199,33.795,0.36284605,0.3334261,10.002783,-3.1,2.2,-1.4,447,2037,2404,30.49,31.4616802686951,20.1491741901621,21.7853641708066,22.8874221181112,289,739056.188877315,34.5656121666667,-88.6310168333333,0.029837752,338.86,250.3,6,19,8.1,41,-968852,-604.866,21,19-Jun-2023 04:31:59
290,290,23.921,-25.239,33.955,0.3530394,0.36284605,10.002783,-3.2,2.2,-1.3,468,2115,2397,30.49,31.54079652356,20.0890614595459,22.0505874602278,22.459191735013,290,739056.188888889,34.5656188333333,-88.6310135,0.152789868,339.13,248.6,6,19,8.1,41,-969459,-604.894,21,19-Jun-2023 04:32:00
291,291,23.945,-25.292,34.104,0.34323275,0.32361945,10.03220295,-3.2,2.3,-1.3,504,2123,2404,30.47,31.6995498119876,20.1491741901621,21.8009237813338,22.4907742943608,291,739056.188900463,34.5656265,-88.631009,0.042184408,339.41,246.5,6,19,8.1,41,-970067,-604.89,21,19-Jun-2023 04:32:01
292,292,23.937,-25.328,34.27,0.38245935,0.3530394,10.0223963,-3.1,2.3,-1.4,468,2058,2397,30.51,31.5606026187473,20.0890614595459,21.8476337662319,22.6648713715102,292,739056.188912037,34.565635,-88.6310045,0.117807676,339.68,244.5,6,19,8.1,41,-970675,-605,21,19-Jun-2023 04:32:02
293,293,23.934,-25.37,34.432,0.38245935,0.3530394,10.002783,-3.1,2.1,-1.3,490,2080,2459,30.51,30.8542941086645,20.0890614595459,21.7853641708066,22.6807315479997,293,739056.188923611,34.5656373333333,-88.631002,0.059675504,339.95,243.9,6,19,8.1,41,-971280,-605.059,21,19-Jun-2023 04:32:03
294,294,23.918,-25.396,34.611,0.3530394,0.34323275,10.05181625,-3.2,2.1,-1.3,433,2065,2446,30.52,31.5804195581168,20.1341391991633,21.7853641708066,22.9671718133657,294,739056.188935185,34.5656361666667,-88.6310015,0.244875344,340.23,244.1,6,19,8.1,41,-971885,-605.219,21,19-Jun-2023 04:32:04
295,295,23.917,-25.432,34.776,0.3530394,0.34323275,10.0420096,-3.1,2.1,-1.3,482,2044,2384,30.54,31.6200860328369,19.7597265274826,21.9568062776607,22.7919087890057,295,739056.188946759,34.5656323333333,-88.6310021666667,0.258765332,340.5,245,6,19,8.1,41,-972490,-605.164,21,19-Jun-2023 04:32:05
296,296,23.913,-25.466,34.946,0.3530394,0.3530394,10.0223963,-3.2,2.2,-1.2,475,2051,2459,30.53,31.7194431062015,19.8941934001497,22.0818901115404,22.7601159359591,296,739056.188958333,34.5656338333333,-88.6310003333333,0.025207756,340.77,244.6,6,19,8.1,41,-973095,-604.993,21,19-Jun-2023 04:32:06
297,297,23.924,-25.521,35.102,0.3726527,0.3530394,9.9635564,-3.1,2.2,-1.4,490,2037,2391,30.52,31.5606026187473,20.0440244544369,22.0036731479105,22.7124685814456,297,739056.188969907,34.5656376666667,-88.6309983333333,0.04629996,341.04,243.7,6,19,8.1,41,-973701,-605.084,21,19-Jun-2023 04:32:07
298,298,23.917,-25.561,35.27,0.36284605,0.3334261,10.03220295,-3.1,2.1,-1.3,461,2065,2432,30.54,31.4024561693485,19.9690528983467,22.0193059720476,22.5856536173137,298,739056.188981481,34.5656368333333,-88.6309986666667,0.032409972,341.32,244.1,6,19,8.1,41,-974305,-605.02,21,19-Jun-2023 04:32:08
299,299,23.943,-25.58,35.44,0.3726527,0.40207265,10.0223963,-3.1,2.2,-1.3,447,2123,2363,30.53,31.4616802686951,19.9690528983467,21.9255879680943,22.6965972823552,299,739056.188993056,34.5656403333333,-88.6309971666667,0.058132172,341.59,243.3,6,19,8.1,42,-974911,-605.073,21,19-Jun-2023 04:32:09
300,300,23.95,-25.598,35.621,0.34323275,0.3726527,10.0420096,-3,2.2,-1.2,418,2094,2418,30.56,31.6399355999826,19.9241237959733,21.8787997809704,22.8874221181112,300,739056.18900463,34.5656456666667,-88.630994,0.204748712,341.86,242.1,6,19,8.1,42,-975518,-605.058,21,19-Jun-2023 04:32:10
301,301,23.955,-25.629,35.795,0.36284605,0.36284605,10.0223963,-3.2,2.1,-1.1,426,2101,2425,30.55,31.5804195581168,19.8343860274557,22.097549389626,22.7283454521493,301,739056.189016204,34.5656478333333,-88.6309926666667,0.166679856,342.14,241.7,6,19,8.1,42,-976123,-605.018,21,19-Jun-2023 04:32:11
302,302,23.953,-25.662,35.963,0.36284605,0.34323275,10.0616229,-3.1,2.2,-1.3,461,2080,2404,30.57,31.7592626263198,20.0890614595459,21.8164885798388,22.8555618244712,302,739056.189027778,34.5656526666667,-88.6309901666667,0.368341904,342.41,240.7,6,19,8.1,42,-976729,-604.954,21,19-Jun-2023 04:32:12
303,303,23.945,-25.693,36.138,0.34323275,0.34323275,10.05181625,-3.2,2.2,-1.4,433,2037,2391,30.56,31.5606026187473,19.9091563677665,22.1759255653112,22.7919087890057,303,739056.189039352,34.5656556666667,-88.630989,0.377087452,4.26,240.2,6,19,8.1,42,-977334,-604.843,21,19-Jun-2023 04:32:13
304,304,23.978,-25.737,36.293,0.3334261,0.3530394,10.0223963,-3.1,2.2,-1.3,490,2108,2404,30.57,32.2809695182052,19.9540720558354,22.1132139780181,22.6807315479997,304,739056.189050926,34.5656578333333,-88.6309893333333,0.1414721,12.48,239.8,6,19,8,42,-977939,-604.978,21,19-Jun-2023 04:32:14
305,305,23.991,-25.778,36.456,0.34323275,0.34323275,10.03220295,-3.2,2.4,-1.5,454,2101,2425,30.55,31.7194431062015,19.8941934001497,21.863214166866,22.7919087890057,305,739056.1890625,34.565663,-88.630988,0.087969924,20.7,238.7,6,19,8,42,-978547,-605.079,21,19-Jun-2023 04:32:15
306,306,24.009,-25.841,36.604,0.36284605,0.34323275,9.97336305,-3.2,2.1,-1.4,518,2094,2487,30.59,32.2809695182052,20.0740446057789,21.8943906149396,22.6331676647018,306,739056.189074074,34.5656648333333,-88.6309883333333,0.076652156,28.91,238.4,6,19,8,42,-979153,-604.897,21,19-Jun-2023 04:32:16
307,307,24.008,-25.894,36.768,0.3726527,0.3334261,9.99297635,-3.2,2.2,-1.4,447,2080,2446,30.58,31.6200860328369,19.9540720558354,22.0662361372438,22.7601159359591,307,739056.189085648,34.5656651666667,-88.6309901666667,0.027265532,37.13,238.5,6,19,8.1,42,-979757,-604.777,21,19-Jun-2023 04:32:17
308,308,23.997,-25.931,36.936,0.38245935,0.36284605,10.01258965,-3.1,2.2,-1.4,475,2037,2432,30.58,31.6200860328369,20.164213729252,21.9099866751769,22.8714891508251,308,739056.189097222,34.5656661666667,-88.6309911666667,0.083339928,45.35,238.3,6,19,8.1,42,-980363,-604.722,21,19-Jun-2023 04:32:18
309,309,24.015,-25.968,37.095,0.392266,0.3726527,10.0223963,-3.1,2.2,-1.3,475,2108,2349,30.6,31.5012168024828,19.8642808250471,22.0193059720476,22.9352549354674,309,739056.189108796,34.5656678333333,-88.630992,0.047328848,53.57,237.9,6,19,8.1,42,-980969,-604.742,21,19-Jun-2023 04:32:19
310,310,24.024,-26.003,37.263,0.3530394,0.36284605,10.0223963,-3.1,2.1,-1.4,461,2080,2418,30.58,31.83903384527,20.1491741901621,21.9411945001125,22.8555618244712,310,739056.18912037,34.5656686666667,-88.6309935,0.11317768,61.79,237.7,6,19,8.2,42,-981574,-604.769,21,19-Jun-2023 04:32:20
311,311,24.043,-26.042,37.425,0.3530394,0.36284605,10.01258965,-3.1,2.1,-1.3,475,2108,2446,30.61,31.9590230698685,20.0140223414805,22.0818901115404,22.8078136212919,311,739056.189131944,34.565666,-88.6309966666667,0.124495448,70,238.4,6,19,8.2,42,-982179,-604.692,21,19-Jun-2023 04:32:21
312,312,24.058,-26.077,37.587,0.3530394,0.3726527,10.0223963,-3.1,2.2,-1.3,504,2080,2432,30.59,31.6200860328369,20.1792578219599,21.8009237813338,22.9671718133657,312,739056.189143519,34.5656711666667,-88.6309963333333,0.130668776,78.22,237.2,6,19,8.2,43,-982786,-604.879,21,19-Jun-2023 04:32:22
313,313,24.037,-26.136,37.748,0.38245935,0.3138128,10.002783,-3.1,2.2,-1.3,475,2023,2446,30.6,32.3011876514856,20.1040828393648,21.8787997809704,22.7124685814456,313,739056.189155093,34.5656761666667,-88.6309958333333,0.058132172,86.44,236,6,20,8.3,43,-983394,-604.99,21,19-Jun-2023 04:32:23
314,314,24.046,-26.173,37.919,0.3530394,0.36284605,10.002783,-3,2.3,-1.2,454,2058,2425,30.62,31.8789858035071,19.9990280357209,21.9255879680943,22.6648713715102,314,739056.189166667,34.5656798333333,-88.6309965,0.45785516,94.66,235.1,6,20,8.3,43,-984002,-605.346,21,19-Jun-2023 04:32:24
315,315,24.049,-26.209,38.096,0.34323275,0.3530394,10.01258965,-3.2,2.2,-1.4,411,2058,2411,30.61,31.3827362606808,20.1792578219599,21.8476337662319,22.6965972823552,315,739056.189178241,34.5656821666667,-88.630997,0.186743172,102.88,234.7,6,20,8.3,43,-984609,-605.3,21,19-Jun-2023 04:32:25
316,316,24.059,-26.255,38.259,0.36284605,0.3334261,10.03220295,-3.2,2.2,-1.2,447,2123,2432,30.6,31.8789858035071,19.9690528983467,21.9880455951086,22.8078136212919,316,739056.189189815,34.565683,-88.6309983333333,0.062247724,111.09,234.5,6,20,8.4,43,-985215,-605.204,21,19-Jun-2023 04:32:26
317,317,24.089,-26.297,38.413,0.34323275,0.3726527,10.002783,-3,2.2,-1.3,532,2065,2404,30.62,31.5012168024828,19.9990280357209,22.097549389626,22.6807315479997,317,739056.189201389,34.565681,-88.631002,0.198575384,119.31,235,6,20,8.4,43,-985820,-605.196,21,19-Jun-2023 04:32:27
318,318,24.12,-26.355,38.567,0.3530394,0.3530394,9.9635564,-3.1,2.2,-1.3,475,2123,2459,30.64,32.0995188607696,20.1191087507352,21.9724233071772,22.8078136212919,318,739056.189212963,34.5656816666667,-88.6310035,0.01800554,127.53,234.8,6,20,8.4,43,-986426,-605.127,21,19-Jun-2023 04:32:28
319,319,24.136,-26.413,38.714,0.34323275,0.32361945,10.0223963,-3.1,2.3,-1.4,539,2073,2425,30.65,31.9991086404898,20.0440244544369,21.9099866751769,22.7760095628705,319,739056.189224537,34.5656806666667,-88.6310058333333,0.10031658,135.75,235,6,20,8.5,44,-987031,-605.089,21,19-Jun-2023 04:32:29
320,320,24.146,-26.464,38.871,0.38245935,0.34323275,10.002783,-3.1,2.2,-1.5,468,2087,2370,30.65,32.2405675395565,19.9840382231602,21.9255879680943,23.0150897703098,320,739056.189236111,34.5656781666667,-88.631009,0.28037198,143.97,235.5,6,20,8.5,44,-987636,-605.083,21,19-Jun-2023 04:32:30
321,321,24.144,-26.504,39.039,0.36284605,0.3334261,10.0420096,-3,2.2,-1.3,447,2094,2418,30.67,31.7991261628603,20.0140223414805,22.1445591118358,22.7760095628705,321,739056.189247685,34.5657786666667,-88.6309611666667,0.14661654,152.19,210.9,7,17,7.4,38,-988281,-605.804,21,19-Jun-2023 04:32:31
322,322,24.133,-26.529,39.224,0.3530394,0.36284605,10.0223963,-3.1,2.3,-1.3,404,2023,2391,30.65,31.8190744777211,19.8642808250471,22.1288838832429,22.9193050034318,322,739056.189259259,34.5658353333333,-88.6309345,0.080767708,160.4,196.9,7,16,6.8,34,-988909,-606.086,21,19-Jun-2023 04:32:32
323,323,24.124,-26.569,39.392,0.3530394,0.3334261,10.0420096,-3,2.3,-1.3,482,2044,2453,30.64,32.1800500370576,20.1491741901621,21.9568062776607,22.8714891508251,323,739056.189270833,34.5658658333333,-88.6309205,0.073565492,168.62,189.5,7,14,6.3,32,-989526,-606.199,21,19-Jun-2023 04:32:32
324,324,24.135,-26.601,39.564,0.3334261,0.3530394,10.0420096,-3.2,2.2,-1.4,440,2073,2397,30.68,32.2607628198914,20.0140223414805,21.9724233071772,23.0310738215276,324,739056.189282407,34.5658845,-88.6309116666667,0.168223188,176.84,185,7,14,6.1,30,-990140,-606.558,21,19-Jun-2023 04:32:34
325,325,24.14,-26.653,39.724,0.3726527,0.3530394,9.9831697,-3.1,2.3,-1.3,497,2044,2439,30.67,32.0794143167683,20.059032272571,22.0505874602278,22.8237240666656,325,739056.189293982,34.5659026666667,-88.6309028333333,0.042698852,185.06,180.6,7,13,5.8,28,-990754,-606.443,21,19-Jun-2023 04:32:35
326,326,24.127,-26.707,39.891,0.3726527,0.3138128,10.01258965,-3,2.2,-1.2,447,2037,2418,30.66,31.4419281577348,20.0140223414805,21.8943906149396,22.8874221181112,326,739056.189305556,34.5659175,-88.630897,0.127582112,193.28,176.9,7,12,5.5,27,-991366,-606.292,21,19-Jun-2023 04:32:36
327,327,24.139,-26.756,40.06,0.32361945,0.3334261,9.99297635,-3.1,2.3,-1.3,447,2051,2459,30.68,32.0191682178381,20.2093596903726,22.0036731479105,22.7283454521493,327,739056.18931713,34.5659353333333,-88.6308888333333,0.137870992,201.49,172.5,7,12,5.3,25,-991979,-606.325,21,19-Jun-2023 04:32:37
328,328,24.162,-26.724,40.25,0.2941995,0.4511059,10.1008495,-1.9,3.7,-2.1,447,2037,2391,30.69,32.3011876514856,20.1491741901621,22.1288838832429,22.9193050034318,328,739056.189328704,34.5659495,-88.6308815,0.184685396,209.71,169.1,7,11,5.1,24,-992590,-606.244,21,19-Jun-2023 04:32:38
329,329,24.134,-26.727,40.441,0.3726527,0.392266,10.09104285,-3.4,1.3,-1.2,447,2023,2418,30.68,32.4836682444187,20.1491741901621,21.9255879680943,22.8555618244712,329,739056.189340278,34.56596,-88.630874,0.242817568,217.93,166.5,7,11,4.9,23,-993200,-605.988,21,19-Jun-2023 04:32:39
330,330,24.153,-26.794,40.599,0.392266,0.3726527,9.9047165,-3.1,2.3,-1.3,461,2023,2404,30.71,32.4836682444187,19.8941934001497,21.9568062776607,22.8396401320733,330,739056.189351852,34.5659671666667,-88.6308675,0.222239808,226.15,164.6,7,10,4.8,22,-993808,-605.868,21,19-Jun-2023 04:32:40
331,331,24.156,-26.836,40.767,0.3726527,0.34323275,10.03220295,-3,2.2,-1.2,433,2080,2404,30.7,31.7393473722785,20.0140223414805,22.2073133909052,22.6807315479997,331,739056.189363426,34.565976,-88.6308608333333,0.173882072,234.37,162.4,7,9.8,4.7,21,-994417,-605.836,21,19-Jun-2023 04:32:41
332,332,24.157,-26.911,40.914,0.40207265,0.3138128,9.97336305,-3,2.2,-1.3,497,2058,2425,30.71,31.7592626263198,20.1491741901621,22.0662361372438,22.8714891508251,332,739056.189375,34.5659828333333,-88.6308591666667,0.53759398,242.58,160.5,7,9.5,4.6,21,-995027,-606.116,21,19-Jun-2023 04:32:42
333,333,24.148,-26.933,41.096,0.3726527,0.36284605,10.0616229,-3.1,2.1,-1.3,404,2094,2459,30.7,31.97906026334,20.1792578219599,22.0193059720476,22.8555618244712,333,739056.189386574,34.5659811666667,-88.6308586666667,0.220182032,250.8,161,7,9.4,4.5,21,-995632,-605.45,21,19-Jun-2023 04:32:43
334,334,24.161,-26.975,41.257,0.40207265,0.3726527,9.97336305,-1.9,1.2,-0.9,490,2108,2473,30.71,32.8925653311583,20.1341391991633,21.9411945001125,22.8555618244712,334,739056.189398148,34.565983,-88.6308583333333,0.437791844,259.02,160.7,7,9.3,4.4,20,-996240,-605.743,21,19-Jun-2023 04:32:44
335,335,24.161,-27.028,41.423,0.40207265,0.36284605,9.99297635,-4.2,3.9,-1.6,426,2058,2453,30.71,31.8789858035071,19.9690528983467,22.1132139780181,22.9033607333149,335,739056.189409722,34.5659871666667,-88.6308576666667,0.129125444,271.84,159.8,7,9.2,4.4,20,-996848,-605.834,21,19-Jun-2023 04:32:45
336,336,24.154,-27.078,41.588,0.40207265,0.34323275,10.002783,-3,1.7,-1.2,461,2051,2418,30.71,32.0794143167683,19.9690528983467,21.9411945001125,22.7760095628705,336,739056.189421296,34.565989,-88.6308573333333,0.00771666,284.65,159.5,7,9.1,4.3,20,-997455,-605.602,21,19-Jun-2023 04:32:46
337,337,24.162,-27.126,41.746,0.40207265,0.3530394,10.01258965,-3.1,2.1,-1.3,475,2065,2363,30.73,32.2203836602467,19.939095690188,22.1288838832429,23.095067209654,337,739056.18943287,34.5659921666667,-88.630857,0.04887218,297.47,158.6,7,9.1,4.3,20,-998063,-605.8,21,19-Jun-2023 04:32:47
338,338,24.164,-27.179,41.909,0.36284605,0.32361945,10.0223963,-3.1,2.2,-1.3,461,2051,2432,30.72,32.3416582910675,20.0890614595459,22.1445591118358,23.0310738215276,338,739056.189444444,34.5659953333333,-88.6308551666667,0.113692124,310.28,157.7,7,9.1,4.2,20,-998670,-605.924,21,19-Jun-2023 04:32:48
339,339,24.171,-27.227,42.069,0.392266,0.3334261,10.03220295,-3,2.2,-1.2,454,2087,2384,30.73,32.3214172367544,19.9091563677665,22.1602396703408,22.9352549354674,339,739056.189456019,34.5660091666667,-88.6308505,0.680609412,323.1,154.6,7,9,4.2,20,-999281,-606.677,21,19-Jun-2023 04:32:49
340,340,24.178,-27.269,42.232,0.40207265,0.3530394,10.0223963,-3,2.1,-1.3,440,2101,2397,30.73,32.1599002594397,20.0890614595459,22.2073133909052,23.1110798880014,340,739056.189467593,34.5660123333333,-88.6308503333333,0.021606648,322.88,154.1,7,9,4.2,20,-999889,-606.688,21,19-Jun-2023 04:32:50
341,341,24.175,-27.308,42.396,0.40207265,0.3334261,10.07142955,-3.1,2.2,-1.3,447,2108,2404,30.75,32.4024504393469,20.059032272571,22.2858768034849,23.0790602709434,341,739056.189479167,34.5660126666667,-88.6308496666667,0.333874156,322.65,153.9,7,8.9,4.2,20,-1000496,-606.816,21,19-Jun-2023 04:32:51
342,342,24.166,-27.36,42.561,0.40207265,0.32361945,10.0223963,-3,2.3,-1.3,440,2073,2453,30.74,32.7079781260399,20.0140223414805,22.097549389626,23.0630590647541,342,739056.189490741,34.5660173333333,-88.630847,0.171824296,322.43,152.8,7,8.9,4.2,20,-1106,-607.217,21,19-Jun-2023 04:32:52
343,343,24.196,-27.41,42.713,0.3726527,0.34323275,10.0223963,-3.1,2.3,-1.2,482,2130,2425,30.74,31.7592626263198,20.1191087507352,21.9724233071772,22.8714891508251,343,739056.189502315,34.5660215,-88.6308445,0.066363276,322.21,151.8,7,8.8,4.2,19,-1715,-607.143,21,19-Jun-2023 04:32:53
344,344,24.194,-27.442,42.882,0.4118793,0.3530394,10.0616229,-3,2.2,-1.3,433,2108,2404,30.74,32.4430361976598,20.1040828393648,21.9255879680943,22.9831387732891,344,739056.189513889,34.5660253333333,-88.6308431666667,0.145587652,321.98,150.9,7,8.6,4.1,19,-2323,-606.937,21,19-Jun-2023 04:32:54
345,345,24.198,-27.501,43.03,0.42168595,0.3334261,10.01258965,-3.1,2.2,-1.3,511,2101,2453,30.76,32.5854517836969,20.1491741901621,22.0818901115404,22.7601159359591,345,739056.189525463,34.566031,-88.6308415,0.219667588,321.76,149.7,7,8.5,4.1,19,-2931,-606.842,21,19-Jun-2023 04:32:55
346,346,24.197,-27.549,43.201,0.3726527,0.34323275,9.99297635,-3,2.2,-1.3,447,2037,2473,30.78,31.8789858035071,20.1341391991633,21.9724233071772,22.8714891508251,346,739056.189537037,34.5660361666667,-88.6308403333333,0.17491096,321.54,148.6,7,8.4,4.1,18,-3539,-606.799,21,19-Jun-2023 04:32:56
347,347,24.186,-27.588,43.376,0.40207265,0.34323275,10.0223963,-2.9,2.1,-1.3,411,2044,2411,30.78,32.6670890016533,19.9690528983467,22.0818901115404,22.9831387732891,347,739056.189548611,34.566039,-88.6308383333333,0.135298772,321.31,148,7,8.3,4.1,18,-4146,-606.572,21,19-Jun-2023 04:32:57
348,348,24.206,-27.656,43.532,0.3726527,0.32361945,9.9635564,-3.1,2.3,-1.4,447,2065,2432,30.77,32.5447034085631,20.0140223414805,22.1916168033089,23.0470635839806,348,739056.189560185,34.5660425,-88.6308371666667,0.068935496,321.09,147.5,7,8,4,17,-4754,-606.518,21,19-Jun-2023 04:32:58
349,349,24.221,-27.709,43.686,0.40207265,0.3530394,9.99297635,-3.1,2,-1.4,504,2094,2459,30.8,32.5650717579225,20.0440244544369,22.1916168033089,23.1751881404251,349,739056.189571759,34.5660465,-88.6308348333333,0.094657696,320.87,146.9,7,7.8,3.9,17,-5361,-606.414,21,19-Jun-2023 04:32:59
350,350,24.237,-27.769,43.84,0.38245935,0.3138128,10.01258965,-3.1,2.1,-1.4,454,2101,2411,30.79,32.2405675395565,19.9091563677665,22.1288838832429,23.0470635839806,350,739056.189583333,34.5660505,-88.6308325,0.086941036,320.64,146.2,7,7.7,3.9,17,-5968,-606.371,21,19-Jun-2023 04:33:00
351,351,24.255,-27.829,43.995,0.3726527,0.3334261,9.9831697,-3.1,2.1,-1.2,504,2051,2432,30.78,33.2231210883646,20.2093596903726,22.0818901115404,22.999111423252,351,739056.189594907,34.5660543333333,-88.630829,0.212465372,320.42,145.5,7,7.7,3.9,17,-6576,-606.532,21,19-Jun-2023 04:33:01
352,352,24.266,-27.886,44.155,0.38245935,0.3138128,10.01258965,-3.1,2.3,-1.3,433,2080,2391,30.8,32.2002111650424,20.1792578219599,21.9880455951086,23.0790602709434,352,739056.189606481,34.5660583333333,-88.6308256666667,0.068421052,320.2,144.7,7,7.6,3.9,17,-7184,-606.68,21,19-Jun-2023 04:33:02
353,353,24.244,-27.933,44.326,0.4118793,0.32361945,10.0223963,-3.1,2.1,-1.3,447,2023,2432,30.81,31.8590042817677,19.9241237959733,22.1916168033089,23.0150897703098,353,739056.189618056,34.5660616666667,-88.6308226666667,0.073565492,319.97,144,7,7.6,3.9,16,-7792,-606.647,21,19-Jun-2023 04:33:03
354,354,24.269,-27.978,44.486,0.38245935,0.3530394,10.002783,-3.1,2.2,-1.4,454,2087,2384,30.8,32.0392390119379,20.0890614595459,22.2701533690134,22.9831387732891,354,739056.18962963,34.566066,-88.6308193333333,0.321013056,319.75,143.1,7,7.5,3.9,16,-8398,-606.343,21,19-Jun-2023 04:33:04
355,355,24.252,-28.027,44.662,0.40207265,0.32361945,10.002783,-3,2.2,-1.3,411,2015,2425,30.82,32.6058435033952,20.1341391991633,22.0818901115404,23.1110798880014,355,739056.189641204,34.5660716666667,-88.6308163333333,0.257736444,319.52,141.7,7,7.5,4,16,-9005,-606.106,21,19-Jun-2023 04:33:05
356,356,24.273,-28.07,44.823,0.392266,0.36284605,9.99297635,-3.1,2.3,-1.4,468,2073,2411,30.82,32.3619108315153,20.0440244544369,22.2073133909052,23.1912296240452,356,739056.189652778,34.5660765,-88.6308135,0.250019784,319.3,140.6,7,7.5,4,16,-9612,-605.957,21,19-Jun-2023 04:33:06
357,357,24.264,-28.123,44.99,0.392266,0.30400615,10.03220295,-3.1,2.3,-1.3,433,2065,2459,30.83,32.6058435033952,19.9241237959733,22.1288838832429,22.8874221181112,357,739056.189664352,34.5660808333333,-88.6308103333333,0.143529876,319.08,139.5,7,7.4,4,16,-10219,-605.933,21,19-Jun-2023 04:33:07
358,358,24.259,-28.167,45.163,0.40207265,0.3530394,9.9831697,-3.1,2.2,-1.3,447,2023,2459,30.84,32.382174875222,19.9690528983467,22.1132139780181,22.9352549354674,358,739056.189675926,34.5660856666667,-88.6308076666667,0.152275424,318.85,138.5,7,7.4,4,16,-10826,-605.987,21,19-Jun-2023 04:33:08
359,359,24.291,-28.196,45.332,0.38245935,0.38245935,10.01258965,-3.1,2.2,-1.3,433,2094,2377,30.84,32.3214172367544,20.2545467837014,22.1288838832429,23.0630590647541,359,739056.1896875,34.5660886666667,-88.6308053333333,0.049386624,318.63,137.8,7,7.4,4,16,-11433,-605.98,21,19-Jun-2023 04:33:09
360,360,24.3,-28.235,45.5,0.40207265,0.36284605,10.002783,-3.1,2.2,-1.3,454,2058,2425,30.84,32.4836682444187,20.0890614595459,22.2387226412228,23.1270983131113,360,739056.189699074,34.5660905,-88.6308033333333,0.158448752,318.41,137.4,7,7.4,4.1,16,-12040,-605.982,21,19-Jun-2023 04:33:10
361,361,24.317,-28.271,45.661,0.3726527,0.34323275,10.05181625,-3,2.3,-1.3,482,2058,2370,30.83,32.7694003550467,19.9091563677665,22.097549389626,23.159152432172,361,739056.189710648,34.5660916666667,-88.6308025,0.245389788,318.18,137.1,7,7.5,4.1,16,-12648,-606.307,21,19-Jun-2023 04:33:11
362,362,24.324,-28.312,45.824,0.40207265,0.34323275,10.03220295,-3.1,2.3,-1.3,461,2065,2404,30.87,32.4633464263389,19.9241237959733,22.3330794687371,23.1912296240452,362,739056.189722222,34.5660926666667,-88.6308008333333,0.184170952,317.96,136.9,7,7.5,4.1,16,-13255,-606.278,21,19-Jun-2023 04:33:12
363,363,24.34,-28.353,45.986,0.38245935,0.3530394,10.01258965,-3,2.2,-1.4,482,2044,2397,30.86,32.7489144493631,19.9091563677665,22.0662361372438,22.8555618244712,363,739056.189733796,34.5660933333333,-88.6307995,0.067392164,317.74,137,7,7.6,4.1,16,-13861,-606,21,19-Jun-2023 04:33:13
364,364,24.358,-28.408,46.135,0.40207265,0.3334261,10.01258965,-3.2,2.2,-1.2,518,2108,2473,30.85,32.5854517836969,20.1040828393648,22.2230153346802,23.2233299461033,364,739056.18974537,34.5660943333333,-88.6307998333333,0.036525524,317.51,136.8,7,7.7,4.1,16,-14467,-606.019,21,19-Jun-2023 04:33:14
365,365,24.37,-28.459,46.295,0.38245935,0.3138128,10.03220295,-2.9,2.2,-1.3,440,2058,2356,30.89,32.7694003550467,20.0890614595459,22.2387226412228,23.1270983131113,365,739056.189756944,34.566094,-88.6308001666667,0.047328848,317.29,137.1,7,7.8,4.2,17,-15073,-605.997,21,19-Jun-2023 04:33:15
366,366,24.391,-28.505,46.454,0.38245935,0.3334261,10.0223963,-3,2.2,-1.3,454,2101,2425,30.87,33.1194889706896,20.0290211458974,22.2544353171315,22.9671718133657,366,739056.189768519,34.5660921666667,-88.6308013333333,0.111119904,317.07,137.7,7,7.9,4.2,17,-15678,-605.933,21,19-Jun-2023 04:33:16
367,367,24.413,-28.551,46.614,0.3726527,0.34323275,10.01258965,-3.2,2.2,-1.4,468,2087,2439,30.87,32.4024504393469,20.0140223414805,22.097549389626,23.0150897703098,367,739056.189780093,34.5660893333333,-88.6308028333333,0.239730904,316.84,138.4,7,8,4.2,17,-16284,-605.896,21,19-Jun-2023 04:33:17
368,368,24.444,-28.596,46.764,0.4118793,0.36284605,10.002783,-3,2.3,-1.2,511,2130,2439,30.86,32.9543090480909,20.0140223414805,22.3173398467076,23.207276890209,368,739056.189791667,34.5660905,-88.6308018333333,0.07973882,316.62,138.1,7,8.1,4.2,17,-16891,-606.098,21,19-Jun-2023 04:33:18
369,369,24.465,-28.633,46.923,0.392266,0.3530394,10.03220295,-3,2.1,-1.3,475,2108,2418,30.87,32.8309292622769,20.1491741901621,22.0036731479105,22.999111423252,369,739056.189803241,34.5660908333333,-88.6308005,0.118836564,316.4,138.1,7,8.1,4.2,17,-17497,-606.18,21,19-Jun-2023 04:33:19
370,370,24.476,-28.68,47.093,0.3726527,0.34323275,9.9831697,-2.9,2.1,-1.3,426,2044,2439,30.87,32.8309292622769,20.0740446057789,22.1759255653112,23.1751881404251,370,739056.189814815,34.5660863333333,-88.6308025,0.170280964,316.17,139.2,7,8.1,4.2,17,-18101,-606.073,21,19-Jun-2023 04:33:20
371,371,24.518,-28.739,47.238,0.40207265,0.34323275,9.9831697,-3.1,2.2,-1.5,454,2158,2397,30.89,32.8720080380511,20.0740446057789,22.1132139780181,22.999111423252,371,739056.189826389,34.5660836666667,-88.6308035,0.239730904,315.95,139.9,7,8.1,4.2,17,-18707,-606.292,21,19-Jun-2023 04:33:21
372,372,24.52,-28.787,47.401,0.392266,0.32361945,10.0223963,-3.2,2.4,-1.3,454,2073,2453,30.92,32.9955315720722,19.8941934001497,22.097549389626,23.1751881404251,372,739056.189837963,34.5660815,-88.6308028333333,0.154847644,315.73,140.4,7,8,4.1,17,-19313,-606.349,21,19-Jun-2023 04:33:22
373,373,24.544,-28.836,47.551,0.4118793,0.34323275,10.01258965,-3.1,2.3,-1.2,482,2115,2384,30.94,32.7898981138421,19.849331206759,22.0349440739926,23.1110798880014,373,739056.189849537,34.5660786666667,-88.6308018333333,0.06173328,315.5,140.9,7,8,4.1,17,-19918,-606.116,21,19-Jun-2023 04:33:23
374,374,24.54,-28.885,47.714,0.4118793,0.32361945,10.0223963,-3.1,2.2,-1.3,454,2073,2439,30.87,32.6466620947757,20.0740446057789,22.2073133909052,23.0310738215276,374,739056.189861111,34.5660778333333,-88.6307996666667,0.148159872,315.28,140.8,7,7.9,4,17,-20525,-606.385,21,19-Jun-2023 04:33:24
375,375,24.545,-28.912,47.892,0.40207265,0.36284605,10.0223963,-3,2.1,-1.2,383,2073,2397,30.92,32.8720080380511,20.164213729252,22.1132139780181,23.1751881404251,375,739056.189872685,34.5660753333333,-88.6307975,0.030352196,315.06,141.1,7,7.9,4,17,-21130,-606.371,21,19-Jun-2023 04:33:25
376,376,24.551,-28.963,48.062,0.3726527,0.3334261,9.9831697,-3.1,1.9,-1.3,440,2044,2480,30.93,32.6466620947757,19.939095690188,22.2387226412228,22.999111423252,376,739056.189884259,34.5660728333333,-88.6307955,0.0900277,314.83,141.2,7,7.9,4,17,-21736,-606.275,21,19-Jun-2023 04:33:26
377,377,24.574,-28.995,48.233,0.3726527,0.36284605,10.01258965,-3.1,2.2,-1.4,411,2087,2425,30.92,32.8925653311583,20.1040828393648,22.364574946897,22.999111423252,377,739056.189895833,34.5660711666667,-88.6307946666667,0.047843292,314.61,141.2,7,7.8,3.9,17,-22342,-606.296,21,19-Jun-2023 04:33:27
378,378,24.588,-29.045,48.396,0.3726527,0.32361945,10.01258965,-3.1,2.1,-1.2,440,2044,2384,30.93,32.1196346880643,20.1191087507352,22.2701533690134,23.0470635839806,378,739056.189907407,34.5660696666667,-88.630794,0.046814404,314.39,141.2,7,7.8,3.9,17,-22948,-606.35,21,19-Jun-2023 04:33:28
379,379,24.597,-29.088,48.561,0.392266,0.3334261,10.0223963,-3.1,2.2,-1.4,426,2073,2411,30.94,32.7079781260399,19.8343860274557,22.1759255653112,23.0310738215276,379,739056.189918982,34.5660675,-88.6307935,0.031895528,314.16,141.3,7,7.7,3.8,16,-23554,-606.359,21,19-Jun-2023 04:33:29
380,380,24.62,-29.133,48.722,0.392266,0.3530394,9.99297635,-3.2,2.3,-1.4,433,2080,2404,30.95,32.9337158180711,20.1491741901621,22.3016056271714,23.1912296240452,380,739056.189930556,34.5660665,-88.6307931666667,0.0128611,313.94,141.2,7,7.5,3.8,16,-24160,-606.342,21,19-Jun-2023 04:33:30
381,381,24.639,-29.171,48.882,0.38245935,0.3530394,10.0223963,-3.1,2.3,-1.3,482,2087,2453,30.95,32.6058435033952,20.1491741901621,22.4434086527592,23.400297748966,381,739056.18994213,34.5660683333333,-88.630792,0.048357736,313.72,140.4,7,7.3,3.7,16,-24768,-606.442,21,19-Jun-2023 04:33:31
382,382,24.657,-29.209,49.055,0.36284605,0.36284605,9.9831697,-3,2.3,-1.3,433,2023,2432,30.95,32.6058435033952,19.9690528983467,22.3330794687371,23.0150897703098,382,739056.189953704,34.5660705,-88.630791,0.081796596,313.49,139.8,7,7.2,3.7,15,-25375,-606.457,21,19-Jun-2023 04:33:32
383,383,24.698,-29.266,49.195,0.392266,0.34323275,9.99297635,-3.2,2.2,-1.4,518,2123,2404,30.95,32.4430361976598,20.1491741901621,22.2387226412228,23.0310738215276,383,739056.189965278,34.5660728333333,-88.6307896666667,0.039612188,313.27,139.2,7,7.1,3.6,15,-25982,-606.437,21,19-Jun-2023 04:33:33
384,384,24.74,-29.309,49.35,0.36284605,0.3530394,10.002783,-3.1,2.4,-1.4,454,2087,2356,30.97,32.5854517836969,20.059032272571,22.4118588494578,23.2876002110863,384,739056.189976852,34.5660751666667,-88.6307875,0.207835376,313.05,138.4,7,7,3.6,15,-26590,-606.651,21,19-Jun-2023 04:33:34
385,385,24.762,-29.355,49.511,0.3726527,0.3334261,10.01258965,-3.1,2.2,-1.2,426,2087,2397,30.96,32.7079781260399,20.1792578219599,22.2230153346802,23.0630590647541,385,739056.189988426,34.5660781666667,-88.6307856666667,0.163078748,312.82,137.5,7,6.9,3.6,15,-27200,-607.128,21,19-Jun-2023 04:33:35
386,386,24.789,-29.405,49.657,0.38245935,0.32361945,10.03220295,-3,2.2,-1.3,511,2115,2411,30.98,32.6875276728456,19.8792348877113,22.0662361372438,23.1110798880014,386,739056.19,34.5660793333333,-88.6307845,0.100831024,312.6,137.2,7,6.8,3.5,14,-27807,-606.897,21,19-Jun-2023 04:33:36
387,387,24.824,-29.444,49.815,0.3334261,0.34323275,10.0223963,-3.1,2.1,-1.3,482,2073,2397,30.98,33.0574557914628,20.1040828393648,22.3488244999129,23.2554534558832,387,739056.190011574,34.566081,-88.6307835,0.055559952,312.37,137,7,6.7,3.5,14,-28413,-606.559,21,19-Jun-2023 04:33:37
388,388,24.815,-29.495,49.972,0.4314926,0.32361945,10.01258965,-3,2.1,-1.4,461,2065,2418,30.96,33.2231210883646,20.2394798397551,22.1288838832429,23.1270983131113,388,739056.190023148,34.5660831666667,-88.6307823333333,0.052987732,312.15,136.5,7,6.6,3.5,14,-29021,-606.57,21,19-Jun-2023 04:33:38
389,389,24.823,-29.53,50.137,0.40207265,0.36284605,10.002783,-3,2.3,-1.4,461,2051,2418,31,33.0781213867181,20.1341391991633,22.1759255653112,23.207276890209,389,739056.190034722,34.5660856666667,-88.630781,0.035496636,311.93,135.9,7,6.5,3.4,14,-29628,-606.581,21,19-Jun-2023 04:33:39
390,390,24.844,-29.578,50.284,0.4118793,0.34323275,10.01258965,-3.1,2.1,-1.4,511,2115,2425,31.01,32.1800500370576,20.0140223414805,22.1602396703408,23.3036823237986,390,739056.190046296,34.566088,-88.6307798333333,0.04115552,311.7,135.2,7,6.5,3.4,14,-30235,-606.675,21,19-Jun-2023 04:33:40
391,391,24.868,-29.618,50.439,0.38245935,0.3530394,10.01258965,-3.1,2.1,-1.4,490,2094,2432,31,32.6875276728456,20.0290211458974,22.3173398467076,23.1270983131113,391,739056.19005787,34.56609,-88.6307788333333,0.031895528,311.48,134.8,7,6.4,3.4,14,-30843,-606.702,21,19-Jun-2023 04:33:41
392,392,24.89,-29.649,50.601,0.36284605,0.34323275,10.05181625,-3.1,2.1,-1.3,454,2087,2384,31.03,33.2854472678316,20.059032272571,22.42763102648,23.3358640556896,392,739056.190069444,34.5660938333333,-88.6307778333333,0.04887218,311.26,133.9,7,6.3,3.3,13,-31451,-606.87,21,19-Jun-2023 04:33:42
393,393,24.912,-29.703,50.752,0.40207265,0.3334261,9.99297635,-3.1,2.3,-1.3,454,2101,2411,31.01,33.0161609024714,20.059032272571,22.364574946897,23.3519636893976,393,739056.190081018,34.5660961666667,-88.6307776666667,0.017491096,311.03,133.4,7,6.2,3.3,13,-32059,-606.758,21,19-Jun-2023 04:33:43
394,394,24.914,-29.758,50.912,0.392266,0.30400615,10.01258965,-3.1,2.2,-1.3,418,2080,2446,31.01,32.8514626877622,20.0290211458974,22.459191735013,23.3036823237986,394,739056.190092593,34.5660986666667,-88.630778,0.055559952,310.81,132.6,7,6.2,3.3,13,-32667,-607.219,21,19-Jun-2023 04:33:44
395,395,24.936,-29.795,51.072,0.3726527,0.34323275,10.0223963,-2.8,2.1,-1.3,461,2065,2377,31.01,33.2854472678316,19.9690528983467,22.4749802799681,23.3036823237986,395,739056.190104167,34.5660993333333,-88.6307783333333,0.03343886,310.59,132.4,7,6.1,3.3,13,-33276,-607.23,21,19-Jun-2023 04:33:45
396,396,24.945,-29.845,51.228,0.40207265,0.3334261,9.99297635,-2.9,2.2,-1.3,468,2044,2397,31.04,32.3619108315153,19.9091563677665,22.2073133909052,23.271523924194,396,739056.190115741,34.5661005,-88.6307786666667,0.10803324,310.36,131.9,7,6.1,3.3,13,-33883,-607.07,21,19-Jun-2023 04:33:46
397,397,24.964,-29.877,51.383,0.40207265,0.36284605,10.0223963,-3,2.3,-1.3,504,2080,2404,31.03,32.9749142933579,20.0440244544369,22.3173398467076,23.4809721484378,397,739056.190127315,34.566101,-88.6307796666667,0.067392164,310.14,131.5,7,6,3.3,13,-34491,-607.004,21,19-Jun-2023 04:33:47
398,398,24.989,-29.917,51.539,0.38245935,0.3530394,10.002783,-3,2.3,-1.2,490,2051,2377,31.03,32.8514626877622,19.9840382231602,22.1916168033089,23.1751881404251,398,739056.190138889,34.5661011666667,-88.6307813333333,0.030352196,309.92,131.2,7,6,3.3,13,-35099,-606.963,21,19-Jun-2023 04:33:48
399,399,24.988,-29.966,51.691,0.392266,0.32361945,10.0223963,-3.1,2.2,-1.3,553,2015,2425,31.02,33.3270595779109,19.8941934001497,22.2858768034849,23.2393887989256,399,739056.190150463,34.5661013333333,-88.6307828333333,0.059675504,309.69,131.1,7,5.9,3.3,13,-35706,-606.891,21,19-Jun-2023 04:33:49
400,400,25.005,-30.006,51.844,0.392266,0.3334261,10.03220295,-3,2.3,-1.3,475,2080,2391,31.04,33.1816316072631,20.1491741901621,22.3803308163606,23.1912296240452,400,739056.190162037,34.5661016666667,-88.6307835,0.163593192,309.47,130.8,7,5.9,3.3,12,-36314,-606.952,21,19-Jun-2023 04:33:50
401,401,25.02,-30.042,52.003,0.392266,0.34323275,10.03220295,-3,2.2,-1.2,475,2080,2418,31.04,33.1401909962961,19.9540720558354,22.3488244999129,23.400297748966,401,739056.190173611,34.5661018333333,-88.6307846666667,0.073051048,309.25,130.6,7,5.9,3.3,12,-36922,-606.876,21,19-Jun-2023 04:33:51
402,402,25.03,-30.086,52.164,0.38245935,0.32361945,10.0223963,-3,2.3,-1.3,433,2094,2487,31.07,33.3478842465152,20.0440244544369,22.3960921149843,23.3197702695799,402,739056.190185185,34.566103,-88.6307856666667,0.04887218,309.02,130.4,7,5.8,3.3,12,-37530,-606.812,21,19-Jun-2023 04:33:52
403,403,25.097,-30.152,52.314,0.2941995,0.3334261,9.93413645,-3.5,2.4,-1,468,2073,2453,31.06,33.1194889706896,20.0740446057789,22.2701533690134,23.3358640556896,403,739056.190196759,34.5661035,-88.630786,0.028808864,308.8,130.3,7,5.8,3.4,12,-38137,-606.708,21,19-Jun-2023 04:33:53
404,404,25.123,-30.213,52.473,0.3334261,0.3138128,9.9635564,-3.3,0.9,-1,468,2044,2439,31.06,33.2646595886948,20.2093596903726,22.3960921149843,23.3519636893976,404,739056.190208333,34.5661048333333,-88.6307878333333,0.135298772,308.58,129.7,7,5.8,3.4,12,-38746,-607.13,21,19-Jun-2023 04:33:54
405,405,25.209,-30.317,52.619,0.22555295,0.26477955,9.8654899,-3.1,2.1,-0.9,383,2087,2480,31.06,33.0161609024714,20.1491741901621,22.3960921149843,23.3841805287398,405,739056.190219907,34.5661058333333,-88.6307878333333,0.148674316,308.35,129.3,7,5.7,3.4,12,-39355,-607.442,21,19-Jun-2023 04:33:55
406,406,25.293,-30.515,52.727,0.1372931,0.04903325,9.81645665,-3.7,-2.5,0.2,504,2065,2404,31.08,33.0781213867181,19.9990280357209,22.2544353171315,23.3519636893976,406,739056.190231481,34.5661063333333,-88.6307875,0.113692124,308.13,129,7,5.7,3.4,12,-39963,-607.369,21,19-Jun-2023 04:33:56
407,407,25.079,-30.498,52.901,0.9218251,0.40207265,10.14988275,-3.3,4.2,-2.3,447,2094,2404,31.09,32.7898981138421,19.8343860274557,22.2230153346802,23.4809721484378,407,739056.190243056,34.5661075,-88.6307876666667,0.150217648,307.91,128.7,7,5.7,3.5,12,-40570,-607.095,21,19-Jun-2023 04:33:57
408,408,24.964,-30.496,53.088,0.6668522,0.3530394,10.1400761,-3.6,3.2,-0.4,433,2037,2404,31.1,33.1816316072631,19.9091563677665,22.1916168033089,23.3358640556896,408,739056.19025463,34.5661088333333,-88.6307883333333,0.093114364,307.68,128.3,7,5.7,3.5,12,-41178,-607.026,21,19-Jun-2023 04:33:58
409,409,25.22,-30.684,53.18,-0.0784532,0.196133,9.6301303,-2.8,5,-1.4,440,2044,2439,31.12,32.7284403789593,19.9091563677665,22.2387226412228,23.2554534558832,409,739056.190266204,34.5661085,-88.6307871666667,0.101345468,307.46,128.3,7,5.7,3.6,12,-41784,-606.663,21,19-Jun-2023 04:33:59
410,410,25.265,-30.724,53.35,0.28439285,0.32361945,9.97336305,-2.9,1.9,-0.8,440,2044,2439,31.1,33.0781213867181,20.1191087507352,22.3803308163606,23.3841805287398,410,739056.190277778,34.5661086666667,-88.630787,0.071507716,307.24,128.2,7,5.6,3.6,12,-42391,-606.595,21,19-Jun-2023 04:34:00
411,411,25.262,-30.778,53.506,0.4511059,0.3138128,9.97336305,-3.1,2,-1.4,418,2080,2377,31.11,32.6262469345616,19.9540720558354,22.2544353171315,23.207276890209,411,739056.190289352,34.5661095,-88.6307885,0.073565492,307.01,127.9,7,5.6,3.7,12,-42998,-606.757,21,19-Jun-2023 04:34:01
